row;subject_id;trial_index;trial_type;rt;key_press;musical_type;stimulus;options;responses
5503;5a6ab70ee6cc4a0001b693c9;0;html-keyboard-response;4612;32;NULL;"This experiment is being conducted at Vassar College.  It consists of several tasks, each of which involves viewing various items and making simple judgments about them. The study takes approximately 15 minutes to complete. Participation poses minimal ris";NULL;NULL
5504;5a6ab70ee6cc4a0001b693c9;1;html-keyboard-response;12643;32;NULL;"Because this experiment features auditory stimuli, it is important to test that your speakers or headphones are working at a comfortable volume before you begin. When you are ready to start the experiment, click the spacebar to continue. In the following ";NULL;NULL
5505;5a6ab70ee6cc4a0001b693c9;2;audio-keyboard-response;NULL;NULL;NULL;MusicStimuli/K.mp3;NULL;NULL
5506;5a6ab70ee6cc4a0001b693c9;3;audio-keyboard-response;3489;75;NULL;MusicStimuli/K.mp3;NULL;NULL
5507;5a6ab70ee6cc4a0001b693c9;4;html-keyboard-response;8635;32;NULL;"In this experiment you will hear brief music clips and be asked to make judgments about them. A short music clip will play, and then you will then be presented with a list of 15 words. Check off the words you thought of when you heard the music. Please ke";NULL;NULL
5508;5a6ab70ee6cc4a0001b693c9;5;html-keyboard-response;2477;32;NULL;"Only click "None of the Above" if you believe none of the given words matched what you were thinking of when you listened to the music. In other words, if you click "None of the Above" there should be no other words checked off.<br><br> Press the spacebar";NULL;NULL
5509;5a6ab70ee6cc4a0001b693c9;6;html-keyboard-response;2294;32;NULL;"Now we will begin the experiment.<br><br> Press the spacebar continue.";NULL;NULL
5510;5a6ab70ee6cc4a0001b693c9;7;audio-keyboard-response;NULL;NULL;NULL;Quarrel;NULL;NULL
5511;5a6ab70ee6cc4a0001b693c9;8;survey-multi-select;9569;NULL;Icon1;Quarrel;"[" Devotion"," Basement"," Quarrel"," Cradle"," Red"," Angel"," River"," Narrowness"," Circle"," Hero"," Sigh"," Wideness"," Needle"," Bird"," Staircase"," None of the above"]";"{"Q0":[" Quarrel"]}"
5512;5a6ab70ee6cc4a0001b693c9;9;audio-keyboard-response;NULL;NULL;NULL;Strength;NULL;NULL
5513;5a6ab70ee6cc4a0001b693c9;10;survey-multi-select;7033;NULL;Ind;Strength;"[" Quarrel"," Peaceful"," Celebration"," Mockery"," Jungle"," Strength"," Devotion"," Toxin"," Departure"," Angel"," Ocean"," Red"," Blossom"," Cradle"," Mischeif"," None of the above"]";"{"Q0":[" Mischeif"]}"
5514;5a6ab70ee6cc4a0001b693c9;11;audio-keyboard-response;NULL;NULL;NULL;Ocean;NULL;NULL
5515;5a6ab70ee6cc4a0001b693c9;12;survey-multi-select;11329;NULL;Icon1;Ocean;"[" Hero"," Quarrel"," Mischeif"," Mockery"," Staircase"," Blue"," Arrival"," Departure"," Circle"," Basement"," Ocean"," Wideness"," Narrowness"," Fight"," Red"," None of the above"]";"{"Q0":[" Hero"]}"
5516;5a6ab70ee6cc4a0001b693c9;13;audio-keyboard-response;NULL;NULL;NULL;Sigh;NULL;NULL
5517;5a6ab70ee6cc4a0001b693c9;14;survey-multi-select;6836;NULL;Icon1;Sigh;"[" Circle"," Sigh"," Devotion"," Jungle"," Wideness"," Strength"," Fight"," Red"," Angel"," Quarrel"," Narrowness"," Rushed"," Bird"," Blossom"," River"," None of the above"]";"{"Q0":[" Blossom"]}"
5518;5a6ab70ee6cc4a0001b693c9;15;audio-keyboard-response;NULL;NULL;NULL;Narrowness;NULL;NULL
5519;5a6ab70ee6cc4a0001b693c9;16;survey-multi-select;13586;NULL;Icon2;Narrowness;"[" Blue"," Cradle"," Needle"," Fight"," Staircase"," Rushed"," Departure"," Quarrel"," Narrowness"," Wideness"," Devotion"," Bird"," River"," Angel"," Mischeif"," None of the above"]";"{"Q0":[" Wideness"]}"
5520;5a6ab70ee6cc4a0001b693c9;17;audio-keyboard-response;NULL;NULL;NULL;Devotion;NULL;NULL
5521;5a6ab70ee6cc4a0001b693c9;18;survey-multi-select;5466;NULL;Ind;Devotion;"[" Circle"," Narrowness"," Jungle"," Quarrel"," Cradle"," Fight"," Blossom"," Hero"," Needle"," Staircase"," Blue"," Arrival"," Sigh"," Mischeif"," Basement"," None of the above"]";"{"Q0":[" Arrival"]}"
5522;5a6ab70ee6cc4a0001b693c9;19;audio-keyboard-response;NULL;NULL;NULL;Mockery;NULL;NULL
5523;5a6ab70ee6cc4a0001b693c9;20;survey-multi-select;9399;NULL;Icon1;Mockery;"[" Mockery"," Blossom"," Red"," Bird"," Departure"," Jungle"," Sigh"," Circle"," Toxin"," Staircase"," Angel"," Peaceful"," Blue"," Arrival"," Basement"," None of the above"]";"{"Q0":[" Mockery"," Toxin"]}"
5524;5a6ab70ee6cc4a0001b693c9;21;audio-keyboard-response;NULL;NULL;NULL;Blossom;NULL;NULL
5525;5a6ab70ee6cc4a0001b693c9;22;survey-multi-select;8351;NULL;Icon2;Blossom;"[" Cradle"," Circle"," Arrival"," Fight"," Hero"," River"," Celebration"," Mockery"," Departure"," Toxin"," Basement"," Mischeif"," Jungle"," Blossom"," Rushed"," None of the above"]";"{"Q0":[" Circle"," Arrival"," Celebration"]}"
5526;5a6ab70ee6cc4a0001b693c9;23;audio-keyboard-response;NULL;NULL;NULL;Basement;NULL;NULL
5527;5a6ab70ee6cc4a0001b693c9;24;survey-multi-select;4425;NULL;Icon2;Basement;"[" Wideness"," Mischeif"," Basement"," Departure"," Mockery"," Arrival"," Peaceful"," Blue"," Toxin"," Bird"," Celebration"," Circle"," Jungle"," Narrowness"," Needle"," None of the above"]";"{"Q0":[" Mischeif"," Toxin"]}"
5528;5a6ab70ee6cc4a0001b693c9;25;audio-keyboard-response;NULL;NULL;NULL;Circle;NULL;NULL
5529;5a6ab70ee6cc4a0001b693c9;26;survey-multi-select;4653;NULL;Icon2;Circle;"[" Ocean"," Staircase"," Mockery"," Circle"," Jungle"," Angel"," Mischeif"," Arrival"," Red"," Toxin"," Blossom"," Needle"," Narrowness"," Hero"," River"," None of the above"]";"{"Q0":[" Circle"," Angel"]}"
5530;5a6ab70ee6cc4a0001b693c9;27;audio-keyboard-response;NULL;NULL;NULL;Peaceful;NULL;NULL
5531;5a6ab70ee6cc4a0001b693c9;28;survey-multi-select;12992;NULL;Ind;Peaceful;"[" Narrowness"," Staircase"," Jungle"," Hero"," Devotion"," Ocean"," Rushed"," Angel"," Needle"," Cradle"," Strength"," Bird"," River"," Sigh"," Fight"," None of the above"]";"{"Q0":[" Cradle"," Bird"]}"
5532;5a6ab70ee6cc4a0001b693c9;29;audio-keyboard-response;NULL;NULL;NULL;Rushed;NULL;NULL
5533;5a6ab70ee6cc4a0001b693c9;30;survey-multi-select;7587;NULL;Icon2;Rushed;"[" Quarrel"," Arrival"," Fight"," Blue"," Hero"," Basement"," Needle"," Mockery"," Toxin"," Rushed"," Cradle"," Jungle"," Red"," Sigh"," Departure"," None of the above"]";"{"Q0":[" Quarrel"," Fight"]}"
5534;5a6ab70ee6cc4a0001b693c9;31;audio-keyboard-response;NULL;NULL;NULL;Red;NULL;NULL
5535;5a6ab70ee6cc4a0001b693c9;32;survey-multi-select;9740;NULL;Ind;Red;"[" Red"," Staircase"," Strength"," Angel"," Jungle"," Cradle"," River"," Sigh"," Devotion"," Needle"," Ocean"," Mischeif"," Blossom"," Peaceful"," Departure"," None of the above"]";"{"Q0":[" Strength"," Mischeif"]}"
5536;5a6ab70ee6cc4a0001b693c9;33;audio-keyboard-response;NULL;NULL;NULL;Jungle;NULL;NULL
5537;5a6ab70ee6cc4a0001b693c9;34;survey-multi-select;14126;NULL;Icon1;Jungle;"[" Bird"," Departure"," Red"," Rushed"," Blue"," Toxin"," Arrival"," Jungle"," Narrowness"," Ocean"," Mockery"," Blossom"," Quarrel"," Needle"," Wideness"," None of the above"]";"{"Q0":[" Jungle"," Blossom"]}"
5538;5a6ab70ee6cc4a0001b693c9;35;audio-keyboard-response;NULL;NULL;NULL;Wideness;NULL;NULL
5539;5a6ab70ee6cc4a0001b693c9;36;survey-multi-select;9853;NULL;Icon2;Wideness;"[" Mischeif"," Quarrel"," Departure"," Devotion"," Blue"," Wideness"," Arrival"," Angel"," Needle"," Rushed"," River"," Celebration"," Circle"," Bird"," Sigh"," None of the above"]";"{"Q0":[" Blue"," River"," Celebration"]}"
5540;5a6ab70ee6cc4a0001b693c9;37;audio-keyboard-response;NULL;NULL;NULL;"Musical Clock";NULL;NULL
5541;5a6ab70ee6cc4a0001b693c9;38;survey-multi-select;11335;NULL;Icon1;"Musical Clock";"[" Fight"," Blue"," Departure"," Hero"," Cradle"," Red"," Needle"," Jungle"," Basement"," Quarrel"," Mischeif"," Peaceful"," Ocean"," Arrival"," Staircase"," None of the above"]";"{"Q0":[" Peaceful"]}"
5542;5a6ab70ee6cc4a0001b693c9;39;audio-keyboard-response;NULL;NULL;NULL;Celebration;NULL;NULL
5543;5a6ab70ee6cc4a0001b693c9;40;survey-multi-select;14072;NULL;Icon1;Celebration;"[" Needle"," Wideness"," Peaceful"," Blossom"," Quarrel"," Narrowness"," Arrival"," Strength"," Fight"," Rushed"," Angel"," Bird"," Departure"," Red"," Toxin"," None of the above"]";"{"Q0":[" Peaceful"," Rushed"," Departure"]}"
5544;5a6ab70ee6cc4a0001b693c9;41;audio-keyboard-response;NULL;NULL;NULL;Mischief;NULL;NULL
5545;5a6ab70ee6cc4a0001b693c9;42;survey-multi-select;7540;NULL;Ind;Mischief;"[" Narrowness"," Bird"," River"," Sigh"," Peaceful"," Departure"," Wideness"," Angel"," Blue"," Basement"," Toxin"," Strength"," Fight"," Mockery"," Blossom"," None of the above"]";"{"Q0":[" Departure"]}"
5546;5a6ab70ee6cc4a0001b693c9;43;audio-keyboard-response;NULL;NULL;NULL;Bird;NULL;NULL
5547;5a6ab70ee6cc4a0001b693c9;44;survey-multi-select;15313;NULL;Icon2;Bird;"[" Wideness"," Mockery"," Narrowness"," Jungle"," Circle"," Blue"," Strength"," Peaceful"," Blossom"," Sigh"," Needle"," Basement"," Hero"," Bird"," Celebration"," None of the above"]";"{"Q0":[" Peaceful"," Blossom"]}"
5548;5a6ab70ee6cc4a0001b693c9;45;audio-keyboard-response;NULL;NULL;NULL;Departure;NULL;NULL
5549;5a6ab70ee6cc4a0001b693c9;46;survey-multi-select;9249;NULL;Ind;Departure;"[" Departure"," Ocean"," Wideness"," Hero"," Blossom"," Devotion"," Toxin"," Rushed"," Bird"," Angel"," Narrowness"," Jungle"," Staircase"," Peaceful"," Sigh"," None of the above"]";"{"Q0":[" Peaceful"]}"
5550;5a6ab70ee6cc4a0001b693c9;47;audio-keyboard-response;NULL;NULL;NULL;Fight;NULL;NULL
5551;5a6ab70ee6cc4a0001b693c9;48;survey-multi-select;11409;NULL;Icon1;Fight;"[" Arrival"," Needle"," Mockery"," Sigh"," Basement"," Mischeif"," Cradle"," Circle"," Ocean"," Narrowness"," Wideness"," Quarrel"," Celebration"," Bird"," Red"," None of the above"]";"{"Q0":[" Quarrel"]}"
5552;5a6ab70ee6cc4a0001b693c9;49;audio-keyboard-response;NULL;NULL;NULL;River;NULL;NULL
5553;5a6ab70ee6cc4a0001b693c9;50;survey-multi-select;6820;NULL;Icon2;River;"[" Fight"," Jungle"," River"," Toxin"," Devotion"," Peaceful"," Cradle"," Arrival"," Angel"," Hero"," Mockery"," Basement"," Wideness"," Bird"," Quarrel"," None of the above"]";"{"Q0":[" River"," Mockery"]}"
5554;5a6ab70ee6cc4a0001b693c9;51;audio-keyboard-response;NULL;NULL;NULL;Toxin;NULL;NULL
5555;5a6ab70ee6cc4a0001b693c9;52;survey-multi-select;10167;NULL;Ind;Toxin;"[" Hero"," Fight"," Quarrel"," Celebration"," Cradle"," Ocean"," Strength"," Peaceful"," Basement"," Wideness"," Blue"," Sigh"," Angel"," Mockery"," Toxin"," None of the above"]";"{"Q0":[" Toxin"]}"
5556;5a6ab70ee6cc4a0001b693c9;53;audio-keyboard-response;NULL;NULL;NULL;Blue;NULL;NULL
5557;5a6ab70ee6cc4a0001b693c9;54;survey-multi-select;10257;NULL;Ind;Blue;"[" Bird"," Celebration"," Staircase"," Toxin"," Wideness"," Blossom"," Ocean"," Devotion"," Mockery"," Jungle"," Arrival"," Cradle"," Strength"," Narrowness"," Fight"," None of the above"]";"{"Q0":[" Wideness"]}"
5558;5a6ab70ee6cc4a0001b693c9;55;audio-keyboard-response;NULL;NULL;NULL;Buzzsaw;NULL;NULL
5559;5a6ab70ee6cc4a0001b693c9;56;survey-multi-select;7086;NULL;Icon1;Buzzsaw;"[" Celebration"," Rushed"," Wideness"," Blossom"," Devotion"," Departure"," Bird"," Mockery"," Blue"," Mischeif"," Peaceful"," Staircase"," Fight"," Toxin"," Quarrel"," None of the above"]";"{"Q0":[" Rushed"," Mockery"]}"
5560;5a6ab70ee6cc4a0001b693c9;57;audio-keyboard-response;NULL;NULL;NULL;Needle;NULL;NULL
5561;5a6ab70ee6cc4a0001b693c9;58;survey-multi-select;10179;NULL;Icon2;Needle;"[" Sigh"," Toxin"," Bird"," Mockery"," Basement"," Strength"," Needle"," Wideness"," Circle"," Rushed"," Peaceful"," Ocean"," Departure"," Arrival"," Angel"," None of the above"]";"{"Q0":[" Bird"]}"
5562;5a6ab70ee6cc4a0001b693c9;59;audio-keyboard-response;NULL;NULL;NULL;Staircase;NULL;NULL
5563;5a6ab70ee6cc4a0001b693c9;60;survey-multi-select;6951;NULL;Icon2;Staircase;"[" Red"," Quarrel"," Ocean"," Fight"," Mockery"," Wideness"," Cradle"," Rushed"," Angel"," Narrowness"," Staircase"," Blue"," Bird"," Departure"," Blossom"," None of the above"]";"{"Q0":[" Staircase"]}"
5564;5a6ab70ee6cc4a0001b693c9;61;audio-keyboard-response;NULL;NULL;NULL;Cradle;NULL;NULL
5565;5a6ab70ee6cc4a0001b693c9;62;survey-multi-select;9087;NULL;Ind;Cradle;"[" Ocean"," Quarrel"," Strength"," Sigh"," Staircase"," Red"," Blue"," Wideness"," Celebration"," Toxin"," Peaceful"," Narrowness"," Blossom"," River"," Needle"," None of the above"]";"{"Q0":[" Sigh"," Blue"]}"
5566;5a6ab70ee6cc4a0001b693c9;63;audio-keyboard-response;NULL;NULL;NULL;Arrival;NULL;NULL
5567;5a6ab70ee6cc4a0001b693c9;64;survey-multi-select;12272;NULL;Icon1;Arrival;"[" Blossom"," Bird"," Blue"," Departure"," Staircase"," Strength"," Celebration"," Ocean"," Cradle"," Hero"," Sigh"," Devotion"," Jungle"," Narrowness"," Needle"," None of the above"]";"{"Q0":[" Strength"," Celebration"," Hero"]}"
5568;5a6ab70ee6cc4a0001b693c9;65;audio-keyboard-response;NULL;NULL;NULL;Hero;NULL;NULL
5569;5a6ab70ee6cc4a0001b693c9;66;survey-multi-select;12721;NULL;Ind;Hero;"[" Narrowness"," Peaceful"," Blue"," Red"," Rushed"," Bird"," Arrival"," Needle"," Hero"," Ocean"," River"," Quarrel"," Staircase"," Fight"," Mischeif"," None of the above"]";"{"Q0":[" Hero"]}"
5570;5a6ab70ee6cc4a0001b693c9;67;html-keyboard-response;3765;32;NULL;"Thank you for completing the main part of the experiment. We have one final question for you before you are finished. <br> Press the spacebar to continue.";NULL;NULL
5571;5a6ab70ee6cc4a0001b693c9;68;survey-multi-choice;2938;NULL;NULL;NULL;NULL;"{"Q0":"No"}"
5572;5abf18d9e1546900019bcc4b;0;html-keyboard-response;30750;32;NULL;"This experiment is being conducted at Vassar College.  It consists of several tasks, each of which involves viewing various items and making simple judgments about them. The study takes approximately 15 minutes to complete. Participation poses minimal ris";NULL;NULL
5573;5abf18d9e1546900019bcc4b;1;html-keyboard-response;9818;32;NULL;"Because this experiment features auditory stimuli, it is important to test that your speakers or headphones are working at a comfortable volume before you begin. When you are ready to start the experiment, click the spacebar to continue. In the following ";NULL;NULL
5574;5abf18d9e1546900019bcc4b;2;audio-keyboard-response;NULL;NULL;NULL;MusicStimuli/K.mp3;NULL;NULL
5575;5abf18d9e1546900019bcc4b;3;audio-keyboard-response;2053;75;NULL;MusicStimuli/K.mp3;NULL;NULL
5576;5abf18d9e1546900019bcc4b;4;html-keyboard-response;21451;32;NULL;"In this experiment you will hear brief music clips and be asked to make judgments about them. A short music clip will play, and then you will then be presented with a list of 15 words. Check off the words you thought of when you heard the music. Please ke";NULL;NULL
5577;5abf18d9e1546900019bcc4b;5;html-keyboard-response;5210;32;NULL;"Only click "None of the Above" if you believe none of the given words matched what you were thinking of when you listened to the music. In other words, if you click "None of the Above" there should be no other words checked off.<br><br> Press the spacebar";NULL;NULL
5578;5abf18d9e1546900019bcc4b;6;html-keyboard-response;2391;32;NULL;"Now we will begin the experiment.<br><br> Press the spacebar continue.";NULL;NULL
5579;5abf18d9e1546900019bcc4b;7;audio-keyboard-response;NULL;NULL;NULL;Blossom;NULL;NULL
5580;5abf18d9e1546900019bcc4b;8;survey-multi-select;20108;NULL;Icon2;Blossom;"[" Peaceful"," Wideness"," Sigh"," Ocean"," Devotion"," Blue"," Mischeif"," Circle"," Blossom"," Fight"," Mockery"," Toxin"," Hero"," Cradle"," Departure"," None of the above"]";"{"Q0":[" Peaceful"," Ocean"," Blue"," Blossom"," Fight"]}"
5581;5abf18d9e1546900019bcc4b;9;audio-keyboard-response;NULL;NULL;NULL;Devotion;NULL;NULL
5582;5abf18d9e1546900019bcc4b;10;survey-multi-select;28466;NULL;Ind;Devotion;"[" Blossom"," Devotion"," River"," Celebration"," Needle"," Jungle"," Blue"," Wideness"," Rushed"," Mockery"," Ocean"," Staircase"," Strength"," Sigh"," Departure"," None of the above"]";"{"Q0":[" Blossom"," Wideness"," Rushed"," Departure"]}"
5583;5abf18d9e1546900019bcc4b;11;audio-keyboard-response;NULL;NULL;NULL;Hero;NULL;NULL
5584;5abf18d9e1546900019bcc4b;12;survey-multi-select;18654;NULL;Ind;Hero;"[" Staircase"," Jungle"," Rushed"," Blue"," Blossom"," Devotion"," Narrowness"," Arrival"," Cradle"," Hero"," River"," Red"," Sigh"," Circle"," Quarrel"," None of the above"]";"{"Q0":[" Staircase"," Narrowness"," Arrival"," Red"," Circle"]}"
5585;5abf18d9e1546900019bcc4b;13;audio-keyboard-response;NULL;NULL;NULL;Ocean;NULL;NULL
5586;5abf18d9e1546900019bcc4b;14;survey-multi-select;11581;NULL;Icon1;Ocean;"[" Blossom"," Basement"," Needle"," Mischeif"," Blue"," River"," Rushed"," Mockery"," Hero"," Circle"," Arrival"," Quarrel"," Jungle"," Celebration"," Staircase"," None of the above"]";"{"Q0":[" Blossom"," River"," Celebration"]}"
5587;5abf18d9e1546900019bcc4b;15;audio-keyboard-response;NULL;NULL;NULL;Arrival;NULL;NULL
5588;5abf18d9e1546900019bcc4b;16;survey-multi-select;13793;NULL;Icon1;Arrival;"[" Celebration"," Ocean"," Strength"," Devotion"," Narrowness"," Toxin"," Angel"," Peaceful"," Bird"," River"," Cradle"," Blue"," Hero"," Arrival"," Wideness"," None of the above"]";"{"Q0":[" Celebration"," Strength"," Devotion"," Angel"," Peaceful"," Hero"]}"
5589;5abf18d9e1546900019bcc4b;17;audio-keyboard-response;NULL;NULL;NULL;Cradle;NULL;NULL
5590;5abf18d9e1546900019bcc4b;18;survey-multi-select;12183;NULL;Ind;Cradle;"[" Basement"," Peaceful"," Mockery"," Sigh"," Wideness"," Devotion"," Mischeif"," Ocean"," Needle"," Red"," Staircase"," Jungle"," River"," Circle"," Bird"," None of the above"]";"{"Q0":[" Peaceful"," Sigh"," Circle"]}"
5591;5abf18d9e1546900019bcc4b;19;audio-keyboard-response;NULL;NULL;NULL;Mischief;NULL;NULL
5592;5abf18d9e1546900019bcc4b;20;survey-multi-select;12730;NULL;Ind;Mischief;"[" Departure"," Needle"," Blue"," Hero"," Red"," Quarrel"," Devotion"," Toxin"," Celebration"," Narrowness"," Jungle"," Ocean"," Cradle"," Arrival"," Rushed"," None of the above"]";"{"Q0":[" Needle"," Celebration"," Narrowness"," Rushed"]}"
5593;5abf18d9e1546900019bcc4b;21;audio-keyboard-response;NULL;NULL;NULL;Departure;NULL;NULL
5594;5abf18d9e1546900019bcc4b;22;survey-multi-select;17408;NULL;Ind;Departure;"[" Rushed"," Mischeif"," Jungle"," Red"," Departure"," Needle"," Basement"," Cradle"," Blossom"," Narrowness"," Peaceful"," Bird"," Strength"," Mockery"," Fight"," None of the above"]";"{"Q0":[" Needle"," Narrowness"," Peaceful"," Bird"]}"
5595;5abf18d9e1546900019bcc4b;23;audio-keyboard-response;NULL;NULL;NULL;Basement;NULL;NULL
5596;5abf18d9e1546900019bcc4b;24;survey-multi-select;19696;NULL;Icon2;Basement;"[" Blue"," Basement"," Cradle"," Mischeif"," Bird"," Red"," Wideness"," Peaceful"," Celebration"," Departure"," Devotion"," Narrowness"," Hero"," Strength"," Angel"," None of the above"]";"{"Q0":[" Basement"," Mischeif"," Wideness"," Departure"," Narrowness"]}"
5597;5abf18d9e1546900019bcc4b;25;audio-keyboard-response;NULL;NULL;NULL;Rushed;NULL;NULL
5598;5abf18d9e1546900019bcc4b;26;survey-multi-select;14295;NULL;Icon2;Rushed;"[" Angel"," Red"," Devotion"," Blue"," Staircase"," Cradle"," River"," Departure"," Wideness"," Ocean"," Celebration"," Circle"," Toxin"," Basement"," Blossom"," None of the above"]";"{"Q0":[" Staircase"," Celebration"," Blossom"]}"
5599;5abf18d9e1546900019bcc4b;27;audio-keyboard-response;NULL;NULL;NULL;Bird;NULL;NULL
5600;5abf18d9e1546900019bcc4b;28;survey-multi-select;13290;NULL;Icon2;Bird;"[" Red"," Hero"," Mockery"," Needle"," Strength"," Narrowness"," Jungle"," Blue"," Celebration"," Sigh"," Bird"," Rushed"," Fight"," Angel"," Wideness"," None of the above"]";"{"Q0":[" Needle"," Blue"," Angel"]}"
5601;5abf18d9e1546900019bcc4b;29;audio-keyboard-response;NULL;NULL;NULL;Blue;NULL;NULL
5602;5abf18d9e1546900019bcc4b;30;survey-multi-select;10482;NULL;Ind;Blue;"[" Departure"," Mockery"," Cradle"," Toxin"," Quarrel"," Staircase"," Ocean"," Narrowness"," Peaceful"," Arrival"," Basement"," Red"," Mischeif"," Needle"," River"," None of the above"]";"{"Q0":[" Departure"," Toxin"," Mischeif"]}"
5603;5abf18d9e1546900019bcc4b;31;audio-keyboard-response;NULL;NULL;NULL;Wideness;NULL;NULL
5604;5abf18d9e1546900019bcc4b;32;survey-multi-select;10352;NULL;Icon2;Wideness;"[" Narrowness"," Devotion"," River"," Bird"," Cradle"," Peaceful"," Wideness"," Staircase"," Basement"," Mischeif"," Ocean"," Departure"," Fight"," Blossom"," Circle"," None of the above"]";"{"Q0":[" Narrowness"," Cradle"," Circle"]}"
5605;5abf18d9e1546900019bcc4b;33;audio-keyboard-response;NULL;NULL;NULL;River;NULL;NULL
5606;5abf18d9e1546900019bcc4b;34;survey-multi-select;10552;NULL;Icon2;River;"[" Staircase"," Basement"," Bird"," Devotion"," Sigh"," Red"," Quarrel"," Narrowness"," Mockery"," Strength"," Arrival"," Peaceful"," Hero"," River"," Cradle"," None of the above"]";"{"Q0":[" Staircase"," Devotion"," Quarrel"," Narrowness"," Mockery"]}"
5607;5abf18d9e1546900019bcc4b;35;audio-keyboard-response;NULL;NULL;NULL;"Musical Clock";NULL;NULL
5608;5abf18d9e1546900019bcc4b;36;survey-multi-select;13040;NULL;Icon1;"Musical Clock";"[" Arrival"," Circle"," Toxin"," Mischeif"," Basement"," Red"," Peaceful"," Ocean"," Blossom"," Hero"," Mockery"," Celebration"," Cradle"," Devotion"," Wideness"," None of the above"]";"{"Q0":[" Red"," Peaceful"," Blossom"," Devotion"," Wideness"]}"
5609;5abf18d9e1546900019bcc4b;37;audio-keyboard-response;NULL;NULL;NULL;Narrowness;NULL;NULL
5610;5abf18d9e1546900019bcc4b;38;survey-multi-select;78400;NULL;Icon2;Narrowness;"[" Narrowness"," Fight"," Celebration"," Peaceful"," Devotion"," Rushed"," River"," Bird"," Wideness"," Red"," Needle"," Mockery"," Basement"," Quarrel"," Circle"," None of the above"]";"{"Q0":[" Narrowness"," Devotion"," Rushed"]}"
5611;5abf18d9e1546900019bcc4b;39;audio-keyboard-response;NULL;NULL;NULL;Staircase;NULL;NULL
5612;5abf18d9e1546900019bcc4b;40;survey-multi-select;22728;NULL;Icon2;Staircase;"[" Bird"," Strength"," Devotion"," River"," Jungle"," Staircase"," Angel"," Departure"," Red"," Circle"," Peaceful"," Blue"," Hero"," Wideness"," Fight"," None of the above"]";"{"Q0":[" Staircase"," Departure"," Red"," Wideness"]}"
5613;5abf18d9e1546900019bcc4b;41;audio-keyboard-response;NULL;NULL;NULL;Red;NULL;NULL
5614;5abf18d9e1546900019bcc4b;42;survey-multi-select;7161;NULL;Ind;Red;"[" Wideness"," Strength"," Basement"," Departure"," Rushed"," Sigh"," Blossom"," Fight"," Ocean"," Circle"," Bird"," Toxin"," Quarrel"," Staircase"," Mischeif"," None of the above"]";"{"Q0":[" Rushed"," Toxin"," Mischeif"]}"
5615;5abf18d9e1546900019bcc4b;43;audio-keyboard-response;NULL;NULL;NULL;Mockery;NULL;NULL
5616;5abf18d9e1546900019bcc4b;44;survey-multi-select;9263;NULL;Icon1;Mockery;"[" Mockery"," Circle"," Arrival"," Celebration"," Cradle"," Red"," Wideness"," Jungle"," Basement"," Ocean"," Blue"," Staircase"," Narrowness"," Hero"," Rushed"," None of the above"]";"{"Q0":[" Mockery"," Circle"," Cradle"]}"
5617;5abf18d9e1546900019bcc4b;45;audio-keyboard-response;NULL;NULL;NULL;Fight;NULL;NULL
5618;5abf18d9e1546900019bcc4b;46;survey-multi-select;32451;NULL;Icon1;Fight;"[" Narrowness"," Red"," Rushed"," Mischeif"," Peaceful"," Arrival"," Mockery"," Strength"," Cradle"," Hero"," Blossom"," Jungle"," Celebration"," Wideness"," Quarrel"," None of the above"]";"{"Q0":[" Arrival"," Jungle"," Celebration"," Quarrel"]}"
5619;5abf18d9e1546900019bcc4b;47;audio-keyboard-response;NULL;NULL;NULL;Quarrel;NULL;NULL
5620;5abf18d9e1546900019bcc4b;48;survey-multi-select;16215;NULL;Icon1;Quarrel;"[" Hero"," River"," Red"," Cradle"," Wideness"," Circle"," Fight"," Quarrel"," Blossom"," Celebration"," Sigh"," Toxin"," Peaceful"," Rushed"," Bird"," None of the above"]";"{"Q0":[" Red"," Wideness"," Quarrel"," Toxin"," Rushed"]}"
5621;5abf18d9e1546900019bcc4b;49;audio-keyboard-response;NULL;NULL;NULL;Jungle;NULL;NULL
5622;5abf18d9e1546900019bcc4b;50;survey-multi-select;79810;NULL;Icon1;Jungle;"[" Celebration"," Rushed"," Needle"," Mockery"," Red"," Fight"," Wideness"," Ocean"," Departure"," Jungle"," Hero"," Devotion"," Cradle"," Blue"," Circle"," None of the above"]";"{"Q0":[" Needle"," Mockery"," Cradle"," Blue"]}"
5623;5abf18d9e1546900019bcc4b;51;audio-keyboard-response;NULL;NULL;NULL;Strength;NULL;NULL
5624;5abf18d9e1546900019bcc4b;52;survey-multi-select;16152;NULL;Ind;Strength;"[" Jungle"," Blossom"," Strength"," Toxin"," Bird"," Peaceful"," Needle"," Red"," Angel"," Cradle"," Mockery"," Mischeif"," River"," Rushed"," Arrival"," None of the above"]";"{"Q0":[" Strength"," Angel"," Rushed"]}"
5625;5abf18d9e1546900019bcc4b;53;audio-keyboard-response;NULL;NULL;NULL;Needle;NULL;NULL
5626;5abf18d9e1546900019bcc4b;54;survey-multi-select;35022;NULL;Icon2;Needle;"[" Red"," River"," Mischeif"," Blossom"," Strength"," Needle"," Toxin"," Sigh"," Blue"," Cradle"," Rushed"," Arrival"," Fight"," Peaceful"," Ocean"," None of the above"]";"{"Q0":[" Sigh"," Blue"," Ocean"]}"
5627;5abf18d9e1546900019bcc4b;55;audio-keyboard-response;NULL;NULL;NULL;Circle;NULL;NULL
5628;5abf18d9e1546900019bcc4b;56;survey-multi-select;6912;NULL;Icon2;Circle;"[" Bird"," Hero"," Quarrel"," Sigh"," Jungle"," Peaceful"," Ocean"," Strength"," Departure"," Red"," Devotion"," Narrowness"," Needle"," Basement"," Mischeif"," None of the above"]";"{"Q0":[" Bird"," Peaceful"," Devotion"]}"
5629;5abf18d9e1546900019bcc4b;57;audio-keyboard-response;NULL;NULL;NULL;Peaceful;NULL;NULL
5630;5abf18d9e1546900019bcc4b;58;survey-multi-select;46264;NULL;Ind;Peaceful;"[" Cradle"," Sigh"," River"," Staircase"," Blue"," Needle"," Toxin"," Ocean"," Quarrel"," Circle"," Angel"," Rushed"," Hero"," Fight"," Devotion"," None of the above"]";"{"Q0":[" Cradle"," Circle"," Angel"]}"
5631;5abf18d9e1546900019bcc4b;59;audio-keyboard-response;NULL;NULL;NULL;Sigh;NULL;NULL
5632;5abf18d9e1546900019bcc4b;60;survey-multi-select;15343;NULL;Icon1;Sigh;"[" Narrowness"," Rushed"," Blue"," Devotion"," Quarrel"," Red"," Needle"," Jungle"," Mischeif"," Fight"," River"," Mockery"," Hero"," Blossom"," Angel"," None of the above"]";"{"Q0":[" Narrowness"," Devotion"," Mockery"]}"
5633;5abf18d9e1546900019bcc4b;61;audio-keyboard-response;NULL;NULL;NULL;Toxin;NULL;NULL
5634;5abf18d9e1546900019bcc4b;62;survey-multi-select;24609;NULL;Ind;Toxin;"[" Angel"," Toxin"," Ocean"," Blossom"," River"," Departure"," Red"," Celebration"," Basement"," Arrival"," Devotion"," Strength"," Staircase"," Rushed"," Blue"," None of the above"]";"{"Q0":[" Departure"," Celebration"," Devotion"," Blue"]}"
5635;5abf18d9e1546900019bcc4b;63;audio-keyboard-response;NULL;NULL;NULL;Buzzsaw;NULL;NULL
5636;5abf18d9e1546900019bcc4b;64;survey-multi-select;15941;NULL;Icon1;Buzzsaw;"[" Staircase"," River"," Rushed"," Strength"," Narrowness"," Angel"," Arrival"," Departure"," Celebration"," Blossom"," Fight"," Circle"," Cradle"," Peaceful"," Wideness"," None of the above"]";"{"Q0":[" Rushed"," Strength"," Arrival"]}"
5637;5abf18d9e1546900019bcc4b;65;audio-keyboard-response;NULL;NULL;NULL;Celebration;NULL;NULL
5638;5abf18d9e1546900019bcc4b;66;survey-multi-select;13965;NULL;Icon1;Celebration;"[" Peaceful"," River"," Needle"," Departure"," Bird"," Cradle"," Circle"," Sigh"," Blossom"," Toxin"," Narrowness"," Red"," Rushed"," Blue"," Angel"," None of the above"]";"{"Q0":[" Peaceful"," Angel"]}"
5639;5abf18d9e1546900019bcc4b;67;html-keyboard-response;4473;32;NULL;"Thank you for completing the main part of the experiment. We have one final question for you before you are finished. <br> Press the spacebar to continue.";NULL;NULL
5640;5abf18d9e1546900019bcc4b;68;survey-multi-choice;4008;NULL;NULL;NULL;NULL;"{"Q0":"No"}"
5641;5abfedbf9534ba0001c71316;0;html-keyboard-response;14203;32;NULL;"This experiment is being conducted at Vassar College.  It consists of several tasks, each of which involves viewing various items and making simple judgments about them. The study takes approximately 15 minutes to complete. Participation poses minimal ris";NULL;NULL
5642;5abfedbf9534ba0001c71316;1;html-keyboard-response;11526;32;NULL;"Because this experiment features auditory stimuli, it is important to test that your speakers or headphones are working at a comfortable volume before you begin. When you are ready to start the experiment, click the spacebar to continue. In the following ";NULL;NULL
5643;5abfedbf9534ba0001c71316;2;audio-keyboard-response;NULL;NULL;NULL;MusicStimuli/K.mp3;NULL;NULL
5644;5abfedbf9534ba0001c71316;3;audio-keyboard-response;3756;75;NULL;MusicStimuli/K.mp3;NULL;NULL
5645;5abfedbf9534ba0001c71316;4;html-keyboard-response;13181;32;NULL;"In this experiment you will hear brief music clips and be asked to make judgments about them. A short music clip will play, and then you will then be presented with a list of 15 words. Check off the words you thought of when you heard the music. Please ke";NULL;NULL
5646;5abfedbf9534ba0001c71316;5;html-keyboard-response;12473;32;NULL;"Only click "None of the Above" if you believe none of the given words matched what you were thinking of when you listened to the music. In other words, if you click "None of the Above" there should be no other words checked off.<br><br> Press the spacebar";NULL;NULL
5647;5abfedbf9534ba0001c71316;6;html-keyboard-response;2447;32;NULL;"Now we will begin the experiment.<br><br> Press the spacebar continue.";NULL;NULL
5648;5abfedbf9534ba0001c71316;7;audio-keyboard-response;NULL;NULL;NULL;Mischief;NULL;NULL
5649;5abfedbf9534ba0001c71316;8;survey-multi-select;16786;NULL;Ind;Mischief;"[" River"," Blue"," Circle"," Blossom"," Needle"," Basement"," Arrival"," Bird"," Red"," Toxin"," Narrowness"," Devotion"," Hero"," Peaceful"," Wideness"," None of the above"]";"{"Q0":[" Blue"," Needle"," Devotion"]}"
5650;5abfedbf9534ba0001c71316;9;audio-keyboard-response;NULL;NULL;NULL;River;NULL;NULL
5651;5abfedbf9534ba0001c71316;10;survey-multi-select;12625;NULL;Icon2;River;"[" Jungle"," Arrival"," Strength"," Peaceful"," Cradle"," Blue"," Departure"," Circle"," Ocean"," Celebration"," Red"," Angel"," Toxin"," Devotion"," Rushed"," None of the above"]";"{"Q0":[" Strength"," Red"," Rushed"]}"
5652;5abfedbf9534ba0001c71316;11;audio-keyboard-response;NULL;NULL;NULL;Rushed;NULL;NULL
5653;5abfedbf9534ba0001c71316;12;survey-multi-select;10150;NULL;Icon2;Rushed;"[" Strength"," Celebration"," Ocean"," Cradle"," Rushed"," Devotion"," Mischeif"," Peaceful"," Red"," Narrowness"," Departure"," Sigh"," River"," Arrival"," Blossom"," None of the above"]";"{"Q0":[" Celebration"," Mischeif"]}"
5654;5abfedbf9534ba0001c71316;13;audio-keyboard-response;NULL;NULL;NULL;Departure;NULL;NULL
5655;5abfedbf9534ba0001c71316;14;survey-multi-select;18734;NULL;Ind;Departure;"[" Staircase"," Circle"," Bird"," Angel"," Blue"," Sigh"," Jungle"," Narrowness"," Red"," Quarrel"," River"," Arrival"," Peaceful"," Strength"," Fight"," None of the above"]";"{"Q0":[" Sigh"," Peaceful"]}"
5656;5abfedbf9534ba0001c71316;15;audio-keyboard-response;NULL;NULL;NULL;Red;NULL;NULL
5657;5abfedbf9534ba0001c71316;16;survey-multi-select;9831;NULL;Ind;Red;"[" Arrival"," Cradle"," Devotion"," Toxin"," Rushed"," Circle"," Jungle"," Mischeif"," Red"," Celebration"," River"," Blossom"," Needle"," Bird"," Fight"," None of the above"]";"{"Q0":[" Toxin"," Red"," Fight"]}"
5658;5abfedbf9534ba0001c71316;17;audio-keyboard-response;NULL;NULL;NULL;Blue;NULL;NULL
5659;5abfedbf9534ba0001c71316;18;survey-multi-select;10347;NULL;Ind;Blue;"[" Fight"," Blossom"," Cradle"," Celebration"," Strength"," Blue"," Toxin"," Jungle"," Staircase"," Quarrel"," River"," Peaceful"," Basement"," Arrival"," Ocean"," None of the above"]";"{"Q0":[" None of the above"]}"
5660;5abfedbf9534ba0001c71316;19;audio-keyboard-response;NULL;NULL;NULL;Blossom;NULL;NULL
5661;5abfedbf9534ba0001c71316;20;survey-multi-select;13842;NULL;Icon2;Blossom;"[" Ocean"," Basement"," Peaceful"," Mischeif"," Mockery"," Strength"," Toxin"," Rushed"," River"," Staircase"," Angel"," Cradle"," Blossom"," Arrival"," Fight"," None of the above"]";"{"Q0":[" Peaceful"," Angel"," Blossom"," Arrival"]}"
5662;5abfedbf9534ba0001c71316;21;audio-keyboard-response;NULL;NULL;NULL;Mockery;NULL;NULL
5663;5abfedbf9534ba0001c71316;22;survey-multi-select;11089;NULL;Icon1;Mockery;"[" Blossom"," Red"," Wideness"," River"," Circle"," Mischeif"," Departure"," Quarrel"," Ocean"," Fight"," Sigh"," Mockery"," Jungle"," Rushed"," Blue"," None of the above"]";"{"Q0":[" Circle"," Mischeif"," Mockery"]}"
5664;5abfedbf9534ba0001c71316;23;audio-keyboard-response;NULL;NULL;NULL;Toxin;NULL;NULL
5665;5abfedbf9534ba0001c71316;24;survey-multi-select;10497;NULL;Ind;Toxin;"[" Arrival"," Toxin"," Fight"," Sigh"," Red"," Peaceful"," Angel"," Mockery"," Mischeif"," Bird"," Celebration"," Wideness"," Hero"," Jungle"," Staircase"," None of the above"]";"{"Q0":[" None of the above"]}"
5666;5abfedbf9534ba0001c71316;25;audio-keyboard-response;NULL;NULL;NULL;Peaceful;NULL;NULL
5667;5abfedbf9534ba0001c71316;26;survey-multi-select;15507;NULL;Ind;Peaceful;"[" Blue"," Angel"," Blossom"," Mockery"," Fight"," River"," Cradle"," Toxin"," Strength"," Red"," Bird"," Departure"," Ocean"," Peaceful"," Arrival"," None of the above"]";"{"Q0":[" Departure"," Ocean"]}"
5668;5abfedbf9534ba0001c71316;27;audio-keyboard-response;NULL;NULL;NULL;Buzzsaw;NULL;NULL
5669;5abfedbf9534ba0001c71316;28;survey-multi-select;10766;NULL;Icon1;Buzzsaw;"[" Toxin"," Mischeif"," Strength"," Fight"," Cradle"," Jungle"," Devotion"," Angel"," Needle"," Bird"," Departure"," Red"," Peaceful"," Blossom"," Ocean"," None of the above"]";"{"Q0":[" Fight"," Jungle"]}"
5670;5abfedbf9534ba0001c71316;29;audio-keyboard-response;NULL;NULL;NULL;Quarrel;NULL;NULL
5671;5abfedbf9534ba0001c71316;30;survey-multi-select;12261;NULL;Icon1;Quarrel;"[" Arrival"," Departure"," Ocean"," Celebration"," Peaceful"," Wideness"," Blue"," Rushed"," Sigh"," Hero"," Narrowness"," Blossom"," Mischeif"," Strength"," Basement"," None of the above"]";"{"Q0":[" Rushed"," Basement"]}"
5672;5abfedbf9534ba0001c71316;31;audio-keyboard-response;NULL;NULL;NULL;Narrowness;NULL;NULL
5673;5abfedbf9534ba0001c71316;32;survey-multi-select;13603;NULL;Icon2;Narrowness;"[" Basement"," Blue"," Arrival"," Ocean"," Rushed"," Devotion"," Needle"," Celebration"," Circle"," Cradle"," Fight"," Strength"," Blossom"," Wideness"," Quarrel"," None of the above"]";"{"Q0":[" Devotion"," Celebration"," Wideness"]}"
5674;5abfedbf9534ba0001c71316;33;audio-keyboard-response;NULL;NULL;NULL;Strength;NULL;NULL
5675;5abfedbf9534ba0001c71316;34;survey-multi-select;12200;NULL;Ind;Strength;"[" Jungle"," Hero"," Circle"," Rushed"," Cradle"," Peaceful"," Quarrel"," Departure"," Mockery"," Needle"," Angel"," Ocean"," Arrival"," Staircase"," Red"," None of the above"]";"{"Q0":[" Hero"]}"
5676;5abfedbf9534ba0001c71316;35;audio-keyboard-response;NULL;NULL;NULL;Basement;NULL;NULL
5677;5abfedbf9534ba0001c71316;36;survey-multi-select;14128;NULL;Icon2;Basement;"[" Celebration"," Strength"," Quarrel"," River"," Rushed"," Needle"," Toxin"," Angel"," Fight"," Bird"," Jungle"," Circle"," Narrowness"," Departure"," Red"," None of the above"]";"{"Q0":[" Toxin"," Narrowness"]}"
5678;5abfedbf9534ba0001c71316;37;audio-keyboard-response;NULL;NULL;NULL;Jungle;NULL;NULL
5679;5abfedbf9534ba0001c71316;38;survey-multi-select;13635;NULL;Icon1;Jungle;"[" Peaceful"," Angel"," Hero"," Celebration"," Needle"," Toxin"," Bird"," Basement"," Blue"," Arrival"," Departure"," Narrowness"," Fight"," Mischeif"," Cradle"," None of the above"]";"{"Q0":[" Bird"," Mischeif"]}"
5680;5abfedbf9534ba0001c71316;39;audio-keyboard-response;NULL;NULL;NULL;Celebration;NULL;NULL
5681;5abfedbf9534ba0001c71316;40;survey-multi-select;15692;NULL;Icon1;Celebration;"[" Fight"," Angel"," Jungle"," Toxin"," Strength"," Celebration"," Circle"," Mockery"," Wideness"," Basement"," River"," Cradle"," Staircase"," Narrowness"," Devotion"," None of the above"]";"{"Q0":[" Celebration"]}"
5682;5abfedbf9534ba0001c71316;41;audio-keyboard-response;NULL;NULL;NULL;Cradle;NULL;NULL
5683;5abfedbf9534ba0001c71316;42;survey-multi-select;11179;NULL;Ind;Cradle;"[" Rushed"," Arrival"," Blue"," Staircase"," Fight"," Jungle"," Departure"," Narrowness"," Cradle"," Angel"," Celebration"," Needle"," Devotion"," Mockery"," Basement"," None of the above"]";"{"Q0":[" Cradle"," Angel"]}"
5684;5abfedbf9534ba0001c71316;43;audio-keyboard-response;NULL;NULL;NULL;Staircase;NULL;NULL
5685;5abfedbf9534ba0001c71316;44;survey-multi-select;14515;NULL;Icon2;Staircase;"[" Rushed"," Peaceful"," Jungle"," Strength"," Cradle"," Ocean"," Blossom"," River"," Arrival"," Wideness"," Narrowness"," Mischeif"," Hero"," Needle"," Departure"," None of the above"]";"{"Q0":[" Rushed"," Narrowness"," Departure"]}"
5686;5abfedbf9534ba0001c71316;45;audio-keyboard-response;NULL;NULL;NULL;Hero;NULL;NULL
5687;5abfedbf9534ba0001c71316;46;survey-multi-select;10813;NULL;Ind;Hero;"[" Celebration"," Jungle"," Sigh"," Fight"," Peaceful"," River"," Mischeif"," Basement"," Devotion"," Arrival"," Bird"," Hero"," Quarrel"," Narrowness"," Angel"," None of the above"]";"{"Q0":[" Celebration"," Hero"]}"
5688;5abfedbf9534ba0001c71316;47;audio-keyboard-response;NULL;NULL;NULL;"Musical Clock";NULL;NULL
5689;5abfedbf9534ba0001c71316;48;survey-multi-select;9416;NULL;Icon1;"Musical Clock";"[" Sigh"," Blossom"," Celebration"," Fight"," Mischeif"," Quarrel"," Cradle"," Red"," Mockery"," River"," Hero"," Staircase"," Basement"," Strength"," Circle"," None of the above"]";"{"Q0":[" Blossom"," Cradle"]}"
5690;5abfedbf9534ba0001c71316;49;audio-keyboard-response;NULL;NULL;NULL;Fight;NULL;NULL
5691;5abfedbf9534ba0001c71316;50;survey-multi-select;11758;NULL;Icon1;Fight;"[" Rushed"," Departure"," Celebration"," Red"," Needle"," Cradle"," Circle"," Sigh"," Angel"," Toxin"," Bird"," Peaceful"," Mischeif"," Quarrel"," Blue"," None of the above"]";"{"Q0":[" Red"," Toxin"," Mischeif"," Quarrel"]}"
5692;5abfedbf9534ba0001c71316;51;audio-keyboard-response;NULL;NULL;NULL;Wideness;NULL;NULL
5693;5abfedbf9534ba0001c71316;52;survey-multi-select;12658;NULL;Icon2;Wideness;"[" Sigh"," Devotion"," Celebration"," Ocean"," Angel"," Circle"," Bird"," Mischeif"," Fight"," Needle"," Hero"," Wideness"," Toxin"," Blue"," Red"," None of the above"]";"{"Q0":[" Angel"," Bird"," Wideness"," Blue"]}"
5694;5abfedbf9534ba0001c71316;53;audio-keyboard-response;NULL;NULL;NULL;Circle;NULL;NULL
5695;5abfedbf9534ba0001c71316;54;survey-multi-select;8338;NULL;Icon2;Circle;"[" River"," Toxin"," Celebration"," Basement"," Fight"," Peaceful"," Mischeif"," Arrival"," Hero"," Cradle"," Needle"," Devotion"," Blossom"," Narrowness"," Sigh"," None of the above"]";"{"Q0":[" Peaceful"," Cradle"," Devotion"," Blossom"]}"
5696;5abfedbf9534ba0001c71316;55;audio-keyboard-response;NULL;NULL;NULL;Ocean;NULL;NULL
5697;5abfedbf9534ba0001c71316;56;survey-multi-select;12795;NULL;Icon1;Ocean;"[" Strength"," Bird"," Wideness"," Quarrel"," Ocean"," Toxin"," Blossom"," Celebration"," Blue"," Basement"," Arrival"," Mockery"," Mischeif"," Rushed"," Needle"," None of the above"]";"{"Q0":[" Ocean"," Blue"," Arrival"," Mischeif"]}"
5698;5abfedbf9534ba0001c71316;57;audio-keyboard-response;NULL;NULL;NULL;Devotion;NULL;NULL
5699;5abfedbf9534ba0001c71316;58;survey-multi-select;12940;NULL;Ind;Devotion;"[" River"," Arrival"," Devotion"," Ocean"," Bird"," Fight"," Departure"," Hero"," Blue"," Angel"," Jungle"," Needle"," Peaceful"," Circle"," Basement"," None of the above"]";"{"Q0":[" Arrival"," Devotion"," Hero"]}"
5700;5abfedbf9534ba0001c71316;59;audio-keyboard-response;NULL;NULL;NULL;Arrival;NULL;NULL
5701;5abfedbf9534ba0001c71316;60;survey-multi-select;13798;NULL;Icon1;Arrival;"[" Mischeif"," Blue"," Fight"," Strength"," Bird"," Circle"," Rushed"," River"," Ocean"," Basement"," Staircase"," Mockery"," Quarrel"," Needle"," Hero"," None of the above"]";"{"Q0":[" Hero"]}"
5702;5abfedbf9534ba0001c71316;61;audio-keyboard-response;NULL;NULL;NULL;Needle;NULL;NULL
5703;5abfedbf9534ba0001c71316;62;survey-multi-select;13990;NULL;Icon2;Needle;"[" Peaceful"," Strength"," Blue"," Mockery"," Arrival"," Bird"," Celebration"," Needle"," Devotion"," Fight"," Cradle"," Red"," Wideness"," Blossom"," Angel"," None of the above"]";"{"Q0":[" Needle"," Fight"," Red"]}"
5704;5abfedbf9534ba0001c71316;63;audio-keyboard-response;NULL;NULL;NULL;Sigh;NULL;NULL
5705;5abfedbf9534ba0001c71316;64;survey-multi-select;11921;NULL;Icon1;Sigh;"[" Basement"," Angel"," Blossom"," Quarrel"," Ocean"," Departure"," Needle"," Mischeif"," Sigh"," Jungle"," Staircase"," Strength"," Cradle"," Rushed"," Bird"," None of the above"]";"{"Q0":[" Sigh"]}"
5706;5abfedbf9534ba0001c71316;65;audio-keyboard-response;NULL;NULL;NULL;Bird;NULL;NULL
5707;5abfedbf9534ba0001c71316;66;survey-multi-select;13536;NULL;Icon2;Bird;"[" Angel"," Hero"," Celebration"," Wideness"," Blossom"," Cradle"," Arrival"," Devotion"," Bird"," Circle"," Mockery"," Ocean"," Narrowness"," Needle"," Blue"," None of the above"]";"{"Q0":[" Celebration"," Blossom"]}"
5708;5abfedbf9534ba0001c71316;67;html-keyboard-response;4793;32;NULL;"Thank you for completing the main part of the experiment. We have one final question for you before you are finished. <br> Press the spacebar to continue.";NULL;NULL
5709;5abfedbf9534ba0001c71316;68;survey-multi-choice;3840;NULL;NULL;NULL;NULL;"{"Q0":"No"}"
5710;59201052ff8a030001e8e680;0;html-keyboard-response;3413;32;NULL;"This experiment is being conducted at Vassar College.  It consists of several tasks, each of which involves viewing various items and making simple judgments about them. The study takes approximately 15 minutes to complete. Participation poses minimal ris";NULL;NULL
5711;59201052ff8a030001e8e680;1;html-keyboard-response;9919;32;NULL;"Because this experiment features auditory stimuli, it is important to test that your speakers or headphones are working at a comfortable volume before you begin. When you are ready to start the experiment, click the spacebar to continue. In the following ";NULL;NULL
5712;59201052ff8a030001e8e680;2;audio-keyboard-response;3489;75;NULL;MusicStimuli/K.mp3;NULL;NULL
5713;59201052ff8a030001e8e680;3;html-keyboard-response;9575;32;NULL;"In this experiment you will hear brief music clips and be asked to make judgments about them. A short music clip will play, and then you will then be presented with a list of 15 words. Check off the words you thought of when you heard the music. Please ke";NULL;NULL
5714;59201052ff8a030001e8e680;4;html-keyboard-response;3055;32;NULL;"Only click "None of the Above" if you believe none of the given words matched what you were thinking of when you listened to the music. In other words, if you click "None of the Above" there should be no other words checked off.<br><br> Press the spacebar";NULL;NULL
5715;59201052ff8a030001e8e680;5;html-keyboard-response;1634;32;NULL;"Now we will begin the experiment.<br><br> Press the spacebar continue.";NULL;NULL
5716;59201052ff8a030001e8e680;6;audio-keyboard-response;NULL;NULL;NULL;"Musical Clock";NULL;NULL
5717;59201052ff8a030001e8e680;7;survey-multi-select;24429;NULL;Icon1;"Musical Clock";"[" Strength"," Mischeif"," Toxin"," Hero"," Sigh"," Needle"," Devotion"," Blossom"," Staircase"," Angel"," Bird"," Circle"," Cradle"," Ocean"," Fight"," None of the above"]";"{"Q0":[" None of the above"]}"
5718;59201052ff8a030001e8e680;8;audio-keyboard-response;NULL;NULL;NULL;Arrival;NULL;NULL
5719;59201052ff8a030001e8e680;9;survey-multi-select;17796;NULL;Icon1;Arrival;"[" Quarrel"," Peaceful"," Angel"," Departure"," Needle"," Narrowness"," Red"," Strength"," Rushed"," Fight"," Sigh"," Jungle"," Mockery"," River"," Bird"," None of the above"]";"{"Q0":[" Strength"," Mockery"]}"
5720;59201052ff8a030001e8e680;10;audio-keyboard-response;NULL;NULL;NULL;Needle;NULL;NULL
5721;59201052ff8a030001e8e680;11;survey-multi-select;10873;NULL;Icon2;Needle;"[" Mischeif"," Toxin"," Narrowness"," Blossom"," Bird"," Hero"," Blue"," Strength"," Arrival"," Basement"," Angel"," Ocean"," Needle"," Sigh"," Celebration"," None of the above"]";"{"Q0":[" Mischeif"," Narrowness"," Bird"]}"
5722;59201052ff8a030001e8e680;12;audio-keyboard-response;NULL;NULL;NULL;River;NULL;NULL
5723;59201052ff8a030001e8e680;13;survey-multi-select;18171;NULL;Icon2;River;"[" Strength"," Jungle"," Quarrel"," Red"," Needle"," Bird"," Fight"," Toxin"," Celebration"," Departure"," River"," Circle"," Blossom"," Ocean"," Cradle"," None of the above"]";"{"Q0":[" Quarrel"," Departure"]}"
5724;59201052ff8a030001e8e680;14;audio-keyboard-response;NULL;NULL;NULL;Buzzsaw;NULL;NULL
5725;59201052ff8a030001e8e680;15;survey-multi-select;14436;NULL;Icon1;Buzzsaw;"[" Bird"," Circle"," Angel"," Quarrel"," Wideness"," Needle"," Rushed"," Jungle"," Cradle"," River"," Ocean"," Peaceful"," Staircase"," Arrival"," Narrowness"," None of the above"]";"{"Q0":[" Quarrel"," Rushed"]}"
5726;59201052ff8a030001e8e680;16;audio-keyboard-response;NULL;NULL;NULL;Fight;NULL;NULL
5727;59201052ff8a030001e8e680;17;survey-multi-select;12240;NULL;Icon1;Fight;"[" Cradle"," Sigh"," Departure"," Needle"," Strength"," Jungle"," River"," Hero"," Arrival"," Fight"," Circle"," Narrowness"," Bird"," Peaceful"," Devotion"," None of the above"]";"{"Q0":[" River"," Hero"," Fight"]}"
5728;59201052ff8a030001e8e680;18;audio-keyboard-response;NULL;NULL;NULL;Quarrel;NULL;NULL
5729;59201052ff8a030001e8e680;19;survey-multi-select;15409;NULL;Icon1;Quarrel;"[" Strength"," Toxin"," Jungle"," Basement"," Mockery"," Cradle"," Hero"," Mischeif"," Sigh"," Wideness"," Departure"," Blue"," Needle"," Celebration"," Peaceful"," None of the above"]";"{"Q0":[" Jungle"]}"
5730;59201052ff8a030001e8e680;20;audio-keyboard-response;NULL;NULL;NULL;Blossom;NULL;NULL
5731;59201052ff8a030001e8e680;21;survey-multi-select;10171;NULL;Icon2;Blossom;"[" Wideness"," Mockery"," Peaceful"," Narrowness"," Ocean"," Devotion"," Arrival"," Basement"," Strength"," Sigh"," Rushed"," Blue"," Cradle"," Quarrel"," Red"," None of the above"]";"{"Q0":[" Peaceful"," Devotion"," Strength"]}"
5732;59201052ff8a030001e8e680;22;audio-keyboard-response;NULL;NULL;NULL;Ocean;NULL;NULL
5733;59201052ff8a030001e8e680;23;survey-multi-select;12822;NULL;Icon1;Ocean;"[" Mischeif"," Peaceful"," Wideness"," Staircase"," Jungle"," Celebration"," Narrowness"," Toxin"," Circle"," Basement"," Sigh"," Blue"," Departure"," Devotion"," River"," None of the above"]";"{"Q0":[" Mischeif"," Toxin"]}"
5734;59201052ff8a030001e8e680;24;audio-keyboard-response;NULL;NULL;NULL;Blue;NULL;NULL
5735;59201052ff8a030001e8e680;25;survey-multi-select;10962;NULL;Ind;Blue;"[" Rushed"," Staircase"," Cradle"," Devotion"," Wideness"," Angel"," Narrowness"," Toxin"," Jungle"," Needle"," Circle"," Blossom"," Red"," Celebration"," Sigh"," None of the above"]";"{"Q0":[" Toxin"]}"
5736;59201052ff8a030001e8e680;26;audio-keyboard-response;NULL;NULL;NULL;Wideness;NULL;NULL
5737;59201052ff8a030001e8e680;27;survey-multi-select;9531;NULL;Icon2;Wideness;"[" Quarrel"," Needle"," Blue"," Peaceful"," Strength"," Red"," River"," Narrowness"," Wideness"," Mischeif"," Mockery"," Departure"," Celebration"," Hero"," Fight"," None of the above"]";"{"Q0":[" River"]}"
5738;59201052ff8a030001e8e680;28;audio-keyboard-response;NULL;NULL;NULL;Peaceful;NULL;NULL
5739;59201052ff8a030001e8e680;29;survey-multi-select;9955;NULL;Ind;Peaceful;"[" Departure"," Narrowness"," Toxin"," Blue"," Angel"," Basement"," Celebration"," Circle"," Cradle"," Peaceful"," River"," Ocean"," Arrival"," Strength"," Wideness"," None of the above"]";"{"Q0":[" Departure"," Wideness"]}"
5740;59201052ff8a030001e8e680;30;audio-keyboard-response;NULL;NULL;NULL;Devotion;NULL;NULL
5741;59201052ff8a030001e8e680;31;survey-multi-select;9504;NULL;Ind;Devotion;"[" Cradle"," Jungle"," Circle"," Sigh"," Staircase"," Wideness"," Quarrel"," Peaceful"," Fight"," Rushed"," Red"," Mischeif"," Blossom"," Narrowness"," Mockery"," None of the above"]";"{"Q0":[" Sigh"]}"
5742;59201052ff8a030001e8e680;32;audio-keyboard-response;NULL;NULL;NULL;Circle;NULL;NULL
5743;59201052ff8a030001e8e680;33;survey-multi-select;16442;NULL;Icon2;Circle;"[" Hero"," Blue"," Peaceful"," Celebration"," Mischeif"," Angel"," Needle"," Strength"," Devotion"," Sigh"," Toxin"," Departure"," Quarrel"," Red"," Bird"," None of the above"]";"{"Q0":[" Peaceful"," Devotion"]}"
5744;59201052ff8a030001e8e680;34;audio-keyboard-response;NULL;NULL;NULL;Toxin;NULL;NULL
5745;59201052ff8a030001e8e680;35;survey-multi-select;12687;NULL;Ind;Toxin;"[" Red"," Wideness"," Peaceful"," Mockery"," Toxin"," Arrival"," Fight"," Mischeif"," Needle"," River"," Basement"," Ocean"," Jungle"," Angel"," Bird"," None of the above"]";"{"Q0":[" Needle"]}"
5746;59201052ff8a030001e8e680;36;audio-keyboard-response;NULL;NULL;NULL;Hero;NULL;NULL
5747;59201052ff8a030001e8e680;37;survey-multi-select;14167;NULL;Ind;Hero;"[" Strength"," Peaceful"," Mischeif"," Circle"," Angel"," Staircase"," Jungle"," Departure"," Sigh"," Hero"," River"," Celebration"," Mockery"," Fight"," Narrowness"," None of the above"]";"{"Q0":[" Strength"," Hero"," Celebration"]}"
5748;59201052ff8a030001e8e680;38;audio-keyboard-response;NULL;NULL;NULL;Narrowness;NULL;NULL
5749;59201052ff8a030001e8e680;39;survey-multi-select;11661;NULL;Icon2;Narrowness;"[" Quarrel"," Narrowness"," Angel"," Sigh"," Blue"," Mockery"," Strength"," Rushed"," Jungle"," Peaceful"," Red"," Arrival"," Devotion"," Needle"," Staircase"," None of the above"]";"{"Q0":[" Narrowness"]}"
5750;59201052ff8a030001e8e680;40;audio-keyboard-response;NULL;NULL;NULL;Strength;NULL;NULL
5751;59201052ff8a030001e8e680;41;survey-multi-select;9470;NULL;Ind;Strength;"[" Fight"," Toxin"," Ocean"," Angel"," Strength"," Devotion"," Celebration"," Blossom"," Cradle"," Sigh"," Narrowness"," Bird"," Departure"," Jungle"," Needle"," None of the above"]";"{"Q0":[" Fight"," Strength"," Celebration"]}"
5752;59201052ff8a030001e8e680;42;audio-keyboard-response;NULL;NULL;NULL;Sigh;NULL;NULL
5753;59201052ff8a030001e8e680;43;survey-multi-select;8522;NULL;Icon1;Sigh;"[" Sigh"," Blossom"," Blue"," Toxin"," Ocean"," Jungle"," Mischeif"," River"," Peaceful"," Narrowness"," Strength"," Basement"," Wideness"," Departure"," Celebration"," None of the above"]";"{"Q0":[" Mischeif"]}"
5754;59201052ff8a030001e8e680;44;audio-keyboard-response;NULL;NULL;NULL;Departure;NULL;NULL
5755;59201052ff8a030001e8e680;45;survey-multi-select;14895;NULL;Ind;Departure;"[" Fight"," Hero"," Basement"," Peaceful"," Toxin"," Departure"," Arrival"," Narrowness"," Blossom"," Staircase"," Mockery"," Red"," Celebration"," Wideness"," Cradle"," None of the above"]";"{"Q0":[" Cradle"]}"
5756;59201052ff8a030001e8e680;46;audio-keyboard-response;NULL;NULL;NULL;Staircase;NULL;NULL
5757;59201052ff8a030001e8e680;47;survey-multi-select;13531;NULL;Icon2;Staircase;"[" Needle"," Basement"," Ocean"," Mischeif"," Angel"," Narrowness"," Blossom"," Bird"," Celebration"," Rushed"," Red"," Mockery"," Wideness"," Quarrel"," Devotion"," None of the above"]";"{"Q0":[" Mischeif"," Rushed"," Mockery"]}"
5758;59201052ff8a030001e8e680;48;audio-keyboard-response;NULL;NULL;NULL;Mockery;NULL;NULL
5759;59201052ff8a030001e8e680;49;survey-multi-select;16418;NULL;Icon1;Mockery;"[" Bird"," Hero"," Arrival"," Ocean"," Peaceful"," River"," Devotion"," Angel"," Toxin"," Basement"," Celebration"," Rushed"," Blossom"," Needle"," Strength"," None of the above"]";"{"Q0":[" Celebration"," Rushed"]}"
5760;59201052ff8a030001e8e680;50;audio-keyboard-response;NULL;NULL;NULL;Cradle;NULL;NULL
5761;59201052ff8a030001e8e680;51;survey-multi-select;11890;NULL;Ind;Cradle;"[" Needle"," Bird"," Celebration"," Mischeif"," Peaceful"," Hero"," Cradle"," Fight"," Wideness"," Strength"," Basement"," Staircase"," River"," Arrival"," Circle"," None of the above"]";"{"Q0":[" Bird"," Peaceful"]}"
5762;59201052ff8a030001e8e680;52;audio-keyboard-response;NULL;NULL;NULL;Mischief;NULL;NULL
5763;59201052ff8a030001e8e680;53;survey-multi-select;10666;NULL;Ind;Mischief;"[" Departure"," River"," Blue"," Needle"," Fight"," Cradle"," Jungle"," Ocean"," Celebration"," Bird"," Narrowness"," Hero"," Basement"," Arrival"," Quarrel"," None of the above"]";"{"Q0":[" Departure"," Celebration"]}"
5764;59201052ff8a030001e8e680;54;audio-keyboard-response;NULL;NULL;NULL;Celebration;NULL;NULL
5765;59201052ff8a030001e8e680;55;survey-multi-select;11316;NULL;Icon1;Celebration;"[" Basement"," Devotion"," River"," Staircase"," Red"," Fight"," Departure"," Toxin"," Needle"," Sigh"," Circle"," Celebration"," Ocean"," Arrival"," Blossom"," None of the above"]";"{"Q0":[" Departure"]}"
5766;59201052ff8a030001e8e680;56;audio-keyboard-response;NULL;NULL;NULL;Bird;NULL;NULL
5767;59201052ff8a030001e8e680;57;survey-multi-select;6474;NULL;Icon2;Bird;"[" Celebration"," Rushed"," Peaceful"," Mischeif"," Hero"," Blossom"," Basement"," Staircase"," Quarrel"," Circle"," Red"," Toxin"," Arrival"," Narrowness"," Bird"," None of the above"]";"{"Q0":[" Blossom"]}"
5768;59201052ff8a030001e8e680;58;audio-keyboard-response;NULL;NULL;NULL;Basement;NULL;NULL
5769;59201052ff8a030001e8e680;59;survey-multi-select;8012;NULL;Icon2;Basement;"[" Hero"," Departure"," Red"," Angel"," Narrowness"," Arrival"," Blue"," Quarrel"," Strength"," Cradle"," Sigh"," Jungle"," River"," Circle"," Mischeif"," None of the above"]";"{"Q0":[" Sigh"]}"
5770;59201052ff8a030001e8e680;60;audio-keyboard-response;NULL;NULL;NULL;Rushed;NULL;NULL
5771;59201052ff8a030001e8e680;61;survey-multi-select;3023;NULL;Icon2;Rushed;"[" Departure"," Cradle"," River"," Sigh"," Jungle"," Celebration"," Toxin"," Fight"," Angel"," Peaceful"," Arrival"," Blossom"," Narrowness"," Blue"," Wideness"," None of the above"]";"{"Q0":[" River"]}"
5772;59201052ff8a030001e8e680;62;audio-keyboard-response;NULL;NULL;NULL;Jungle;NULL;NULL
5773;59201052ff8a030001e8e680;63;survey-multi-select;7794;NULL;Icon1;Jungle;"[" Ocean"," Needle"," Departure"," Quarrel"," Devotion"," Celebration"," Wideness"," Staircase"," Mockery"," Toxin"," Sigh"," Narrowness"," Mischeif"," Basement"," Circle"," None of the above"]";"{"Q0":[" Basement"]}"
5774;59201052ff8a030001e8e680;64;audio-keyboard-response;NULL;NULL;NULL;Red;NULL;NULL
5775;59201052ff8a030001e8e680;65;survey-multi-select;9613;NULL;Ind;Red;"[" Peaceful"," Wideness"," Toxin"," Narrowness"," Ocean"," Celebration"," Devotion"," Fight"," Blossom"," Basement"," Cradle"," Blue"," Quarrel"," Needle"," Staircase"," None of the above"]";"{"Q0":[" Ocean"]}"
5776;59201052ff8a030001e8e680;66;html-keyboard-response;4897;32;NULL;"Thank you for completing the main part of the experiment. We have one final question for you before you are finished. <br> Press the spacebar to continue.";NULL;NULL
5777;59201052ff8a030001e8e680;67;survey-multi-choice;3400;NULL;NULL;NULL;NULL;"{"Q0":"No"}"
5778;55b508f4fdf99b1c26c21c69;0;html-keyboard-response;6162;32;NULL;"This experiment is being conducted at Vassar College.  It consists of several tasks, each of which involves viewing various items and making simple judgments about them. The study takes approximately 15 minutes to complete. Participation poses minimal ris";NULL;NULL
5779;55b508f4fdf99b1c26c21c69;1;html-keyboard-response;5076;32;NULL;"Because this experiment features auditory stimuli, it is important to test that your speakers or headphones are working at a comfortable volume before you begin. When you are ready to start the experiment, click the spacebar to continue. In the following ";NULL;NULL
5780;55b508f4fdf99b1c26c21c69;2;audio-keyboard-response;NULL;NULL;NULL;MusicStimuli/K.mp3;NULL;NULL
5781;55b508f4fdf99b1c26c21c69;3;audio-keyboard-response;2420;75;NULL;MusicStimuli/K.mp3;NULL;NULL
5782;55b508f4fdf99b1c26c21c69;4;html-keyboard-response;13028;32;NULL;"In this experiment you will hear brief music clips and be asked to make judgments about them. A short music clip will play, and then you will then be presented with a list of 15 words. Check off the words you thought of when you heard the music. Please ke";NULL;NULL
5783;55b508f4fdf99b1c26c21c69;5;html-keyboard-response;6236;32;NULL;"Only click "None of the Above" if you believe none of the given words matched what you were thinking of when you listened to the music. In other words, if you click "None of the Above" there should be no other words checked off.<br><br> Press the spacebar";NULL;NULL
5784;55b508f4fdf99b1c26c21c69;6;html-keyboard-response;1126;32;NULL;"Now we will begin the experiment.<br><br> Press the spacebar continue.";NULL;NULL
5785;55b508f4fdf99b1c26c21c69;7;audio-keyboard-response;NULL;NULL;NULL;Jungle;NULL;NULL
5786;55b508f4fdf99b1c26c21c69;8;survey-multi-select;19902;NULL;Icon1;Jungle;"[" Fight"," Rushed"," River"," Circle"," Needle"," Red"," Strength"," Blossom"," Sigh"," Basement"," Mockery"," Jungle"," Departure"," Blue"," Staircase"," None of the above"]";"{"Q0":[" None of the above"]}"
5787;55b508f4fdf99b1c26c21c69;9;audio-keyboard-response;NULL;NULL;NULL;"Musical Clock";NULL;NULL
5788;55b508f4fdf99b1c26c21c69;10;survey-multi-select;17428;NULL;Icon1;"Musical Clock";"[" Basement"," Wideness"," Sigh"," Peaceful"," Celebration"," Narrowness"," Rushed"," Needle"," River"," Hero"," Mischeif"," Red"," Departure"," Bird"," Toxin"," None of the above"]";"{"Q0":[" None of the above"]}"
5789;55b508f4fdf99b1c26c21c69;11;audio-keyboard-response;NULL;NULL;NULL;Cradle;NULL;NULL
5790;55b508f4fdf99b1c26c21c69;12;survey-multi-select;7426;NULL;Ind;Cradle;"[" Wideness"," Toxin"," Blue"," Angel"," Sigh"," Cradle"," Needle"," Hero"," Devotion"," Bird"," Fight"," Jungle"," Circle"," Narrowness"," Peaceful"," None of the above"]";"{"Q0":[" None of the above"]}"
5791;55b508f4fdf99b1c26c21c69;13;audio-keyboard-response;NULL;NULL;NULL;Hero;NULL;NULL
5792;55b508f4fdf99b1c26c21c69;14;survey-multi-select;9140;NULL;Ind;Hero;"[" Narrowness"," Red"," River"," Fight"," Arrival"," Staircase"," Mischeif"," Celebration"," Strength"," Wideness"," Needle"," Ocean"," Hero"," Mockery"," Cradle"," None of the above"]";"{"Q0":[" None of the above"]}"
5793;55b508f4fdf99b1c26c21c69;15;audio-keyboard-response;NULL;NULL;NULL;Sigh;NULL;NULL
5794;55b508f4fdf99b1c26c21c69;16;survey-multi-select;9266;NULL;Icon1;Sigh;"[" Cradle"," Jungle"," Celebration"," Quarrel"," Strength"," Circle"," Red"," Rushed"," Blue"," Basement"," Peaceful"," Sigh"," Hero"," Wideness"," Fight"," None of the above"]";"{"Q0":[" Blue"]}"
5795;55b508f4fdf99b1c26c21c69;17;audio-keyboard-response;NULL;NULL;NULL;Red;NULL;NULL
5796;55b508f4fdf99b1c26c21c69;18;survey-multi-select;7350;NULL;Ind;Red;"[" Quarrel"," Wideness"," Bird"," Arrival"," Red"," Ocean"," Jungle"," Blue"," Devotion"," Needle"," Strength"," Toxin"," Blossom"," Cradle"," Sigh"," None of the above"]";"{"Q0":[" None of the above"]}"
5797;55b508f4fdf99b1c26c21c69;19;audio-keyboard-response;NULL;NULL;NULL;Blue;NULL;NULL
5798;55b508f4fdf99b1c26c21c69;20;survey-multi-select;6508;NULL;Ind;Blue;"[" Hero"," Celebration"," Narrowness"," Peaceful"," Circle"," Mischeif"," Devotion"," Quarrel"," Rushed"," Sigh"," Wideness"," Staircase"," Fight"," Blossom"," Mockery"," None of the above"]";"{"Q0":[" None of the above"]}"
5799;55b508f4fdf99b1c26c21c69;21;audio-keyboard-response;NULL;NULL;NULL;Mockery;NULL;NULL
5800;55b508f4fdf99b1c26c21c69;22;survey-multi-select;9014;NULL;Icon1;Mockery;"[" Strength"," Mockery"," Departure"," Arrival"," Sigh"," Blossom"," Wideness"," Hero"," Toxin"," Ocean"," Fight"," River"," Rushed"," Blue"," Devotion"," None of the above"]";"{"Q0":[" Mockery"]}"
5801;55b508f4fdf99b1c26c21c69;23;audio-keyboard-response;NULL;NULL;NULL;Basement;NULL;NULL
5802;55b508f4fdf99b1c26c21c69;24;survey-multi-select;9052;NULL;Icon2;Basement;"[" Arrival"," Bird"," Blossom"," Red"," Needle"," Celebration"," Hero"," Circle"," Mischeif"," Rushed"," Strength"," Mockery"," River"," Narrowness"," Ocean"," None of the above"]";"{"Q0":[" None of the above"]}"
5803;55b508f4fdf99b1c26c21c69;25;audio-keyboard-response;NULL;NULL;NULL;Quarrel;NULL;NULL
5804;55b508f4fdf99b1c26c21c69;26;survey-multi-select;7038;NULL;Icon1;Quarrel;"[" Jungle"," Ocean"," River"," Circle"," Quarrel"," Rushed"," Needle"," Bird"," Angel"," Blue"," Hero"," Celebration"," Toxin"," Devotion"," Narrowness"," None of the above"]";"{"Q0":[" Rushed"]}"
5805;55b508f4fdf99b1c26c21c69;27;audio-keyboard-response;NULL;NULL;NULL;Celebration;NULL;NULL
5806;55b508f4fdf99b1c26c21c69;28;survey-multi-select;12162;NULL;Icon1;Celebration;"[" Mischeif"," Toxin"," Circle"," Fight"," Cradle"," Wideness"," Arrival"," Mockery"," Angel"," Strength"," Celebration"," Staircase"," Red"," Departure"," Narrowness"," None of the above"]";"{"Q0":[" Celebration"]}"
5807;55b508f4fdf99b1c26c21c69;29;audio-keyboard-response;NULL;NULL;NULL;Devotion;NULL;NULL
5808;55b508f4fdf99b1c26c21c69;30;survey-multi-select;18118;NULL;Ind;Devotion;"[" Blue"," Mockery"," Strength"," Departure"," River"," Toxin"," Blossom"," Staircase"," Mischeif"," Peaceful"," Needle"," Red"," Fight"," Wideness"," Cradle"," None of the above"]";"{"Q0":[" None of the above"]}"
5809;55b508f4fdf99b1c26c21c69;31;audio-keyboard-response;NULL;NULL;NULL;Toxin;NULL;NULL
5810;55b508f4fdf99b1c26c21c69;32;survey-multi-select;7294;NULL;Ind;Toxin;"[" Hero"," Mischeif"," River"," Circle"," Departure"," Ocean"," Peaceful"," Cradle"," Jungle"," Blossom"," Bird"," Celebration"," Devotion"," Blue"," Wideness"," None of the above"]";"{"Q0":[" Mischeif"]}"
5811;55b508f4fdf99b1c26c21c69;33;audio-keyboard-response;NULL;NULL;NULL;Peaceful;NULL;NULL
5812;55b508f4fdf99b1c26c21c69;34;survey-multi-select;15490;NULL;Ind;Peaceful;"[" Arrival"," Celebration"," Rushed"," River"," Strength"," Fight"," Circle"," Devotion"," Red"," Hero"," Toxin"," Peaceful"," Basement"," Blossom"," Staircase"," None of the above"]";"{"Q0":[" None of the above"]}"
5813;55b508f4fdf99b1c26c21c69;35;audio-keyboard-response;NULL;NULL;NULL;Needle;NULL;NULL
5814;55b508f4fdf99b1c26c21c69;36;survey-multi-select;7594;NULL;Icon2;Needle;"[" Bird"," Hero"," Quarrel"," Staircase"," Devotion"," Arrival"," Needle"," Mockery"," Blossom"," Jungle"," Wideness"," Strength"," River"," Basement"," Angel"," None of the above"]";"{"Q0":[" Quarrel"]}"
5815;55b508f4fdf99b1c26c21c69;37;audio-keyboard-response;NULL;NULL;NULL;Bird;NULL;NULL
5816;55b508f4fdf99b1c26c21c69;38;survey-multi-select;7230;NULL;Icon2;Bird;"[" Bird"," Narrowness"," Cradle"," Needle"," Ocean"," Mockery"," Hero"," Blue"," Staircase"," Strength"," Fight"," Jungle"," Toxin"," Arrival"," Sigh"," None of the above"]";"{"Q0":[" None of the above"]}"
5817;55b508f4fdf99b1c26c21c69;39;audio-keyboard-response;NULL;NULL;NULL;River;NULL;NULL
5818;55b508f4fdf99b1c26c21c69;40;survey-multi-select;7414;NULL;Icon2;River;"[" Strength"," Red"," Hero"," Needle"," Rushed"," Bird"," Circle"," Arrival"," Fight"," Celebration"," Mockery"," Blue"," Angel"," Cradle"," Quarrel"," None of the above"]";"{"Q0":[" Rushed"]}"
5819;55b508f4fdf99b1c26c21c69;41;audio-keyboard-response;NULL;NULL;NULL;Fight;NULL;NULL
5820;55b508f4fdf99b1c26c21c69;42;survey-multi-select;20054;NULL;Icon1;Fight;"[" Sigh"," Fight"," Wideness"," Mockery"," Jungle"," Toxin"," Blossom"," Red"," Ocean"," Angel"," Needle"," Strength"," Blue"," Circle"," Rushed"," None of the above"]";"{"Q0":[" Rushed"]}"
5821;55b508f4fdf99b1c26c21c69;43;audio-keyboard-response;NULL;NULL;NULL;Circle;NULL;NULL
5822;55b508f4fdf99b1c26c21c69;44;survey-multi-select;13452;NULL;Icon2;Circle;"[" Wideness"," Cradle"," Quarrel"," Hero"," Rushed"," Sigh"," Peaceful"," Toxin"," Mockery"," Jungle"," Strength"," Fight"," Narrowness"," Devotion"," Red"," None of the above"]";"{"Q0":[" None of the above"]}"
5823;55b508f4fdf99b1c26c21c69;45;audio-keyboard-response;NULL;NULL;NULL;Blossom;NULL;NULL
5824;55b508f4fdf99b1c26c21c69;46;survey-multi-select;7470;NULL;Icon2;Blossom;"[" Ocean"," Rushed"," Strength"," Mischeif"," Red"," River"," Needle"," Hero"," Sigh"," Cradle"," Mockery"," Circle"," Arrival"," Blossom"," Blue"," None of the above"]";"{"Q0":[" Blue"]}"
5825;55b508f4fdf99b1c26c21c69;47;audio-keyboard-response;NULL;NULL;NULL;Narrowness;NULL;NULL
5826;55b508f4fdf99b1c26c21c69;48;survey-multi-select;12292;NULL;Icon2;Narrowness;"[" Departure"," Fight"," Rushed"," Staircase"," Needle"," Blue"," Cradle"," Mischeif"," Hero"," Bird"," Narrowness"," Quarrel"," Basement"," Celebration"," Toxin"," None of the above"]";"{"Q0":[" Blue"," Mischeif"," Quarrel"]}"
5827;55b508f4fdf99b1c26c21c69;49;audio-keyboard-response;NULL;NULL;NULL;Rushed;NULL;NULL
5828;55b508f4fdf99b1c26c21c69;50;survey-multi-select;14514;NULL;Icon2;Rushed;"[" Strength"," Needle"," Bird"," Basement"," Jungle"," Narrowness"," Wideness"," Toxin"," Departure"," Fight"," Mischeif"," Ocean"," Devotion"," Rushed"," Mockery"," None of the above"]";"{"Q0":[" Rushed"]}"
5829;55b508f4fdf99b1c26c21c69;51;audio-keyboard-response;NULL;NULL;NULL;Buzzsaw;NULL;NULL
5830;55b508f4fdf99b1c26c21c69;52;survey-multi-select;10310;NULL;Icon1;Buzzsaw;"[" Blue"," Fight"," Peaceful"," River"," Basement"," Arrival"," Ocean"," Staircase"," Blossom"," Mischeif"," Jungle"," Sigh"," Cradle"," Mockery"," Wideness"," None of the above"]";"{"Q0":[" Fight"," Mischeif"]}"
5831;55b508f4fdf99b1c26c21c69;53;audio-keyboard-response;NULL;NULL;NULL;Wideness;NULL;NULL
5832;55b508f4fdf99b1c26c21c69;54;survey-multi-select;8782;NULL;Icon2;Wideness;"[" Blue"," Quarrel"," Angel"," Peaceful"," Sigh"," Jungle"," Toxin"," Circle"," Hero"," Arrival"," Rushed"," Cradle"," Bird"," Mockery"," Basement"," None of the above"]";"{"Q0":[" Hero"]}"
5833;55b508f4fdf99b1c26c21c69;55;audio-keyboard-response;NULL;NULL;NULL;Strength;NULL;NULL
5834;55b508f4fdf99b1c26c21c69;56;survey-multi-select;9872;NULL;Ind;Strength;"[" Toxin"," Sigh"," Bird"," Fight"," Angel"," Needle"," Peaceful"," Strength"," Basement"," Staircase"," Arrival"," Quarrel"," Hero"," Jungle"," Celebration"," None of the above"]";"{"Q0":[" Strength"," Arrival"," Hero"]}"
5835;55b508f4fdf99b1c26c21c69;57;audio-keyboard-response;NULL;NULL;NULL;Arrival;NULL;NULL
5836;55b508f4fdf99b1c26c21c69;58;survey-multi-select;8692;NULL;Icon1;Arrival;"[" Rushed"," Devotion"," Celebration"," Departure"," Toxin"," Red"," Jungle"," Bird"," Quarrel"," Staircase"," Narrowness"," Cradle"," Angel"," Sigh"," Strength"," None of the above"]";"{"Q0":[" Narrowness"]}"
5837;55b508f4fdf99b1c26c21c69;59;audio-keyboard-response;NULL;NULL;NULL;Departure;NULL;NULL
5838;55b508f4fdf99b1c26c21c69;60;survey-multi-select;9454;NULL;Ind;Departure;"[" Circle"," Wideness"," Arrival"," Jungle"," Peaceful"," Red"," Bird"," Blossom"," Strength"," Devotion"," Rushed"," Departure"," Quarrel"," Toxin"," River"," None of the above"]";"{"Q0":[" Wideness"," Peaceful"]}"
5839;55b508f4fdf99b1c26c21c69;61;audio-keyboard-response;NULL;NULL;NULL;Mischief;NULL;NULL
5840;55b508f4fdf99b1c26c21c69;62;survey-multi-select;8832;NULL;Ind;Mischief;"[" Basement"," Red"," Mischeif"," Needle"," Ocean"," Toxin"," Blossom"," Bird"," Wideness"," Jungle"," Sigh"," Rushed"," Quarrel"," Circle"," Peaceful"," None of the above"]";"{"Q0":[" Wideness"]}"
5841;55b508f4fdf99b1c26c21c69;63;audio-keyboard-response;NULL;NULL;NULL;Staircase;NULL;NULL
5842;55b508f4fdf99b1c26c21c69;64;survey-multi-select;8516;NULL;Icon2;Staircase;"[" Cradle"," Mischeif"," Rushed"," Sigh"," Staircase"," Hero"," Blue"," Devotion"," Blossom"," Angel"," Arrival"," Needle"," Celebration"," River"," Wideness"," None of the above"]";"{"Q0":[" Mischeif"," Rushed"," Blue"]}"
5843;55b508f4fdf99b1c26c21c69;65;audio-keyboard-response;NULL;NULL;NULL;Ocean;NULL;NULL
5844;55b508f4fdf99b1c26c21c69;66;survey-multi-select;8746;NULL;Icon1;Ocean;"[" Circle"," Ocean"," Bird"," Quarrel"," Sigh"," Fight"," Departure"," River"," Red"," Mockery"," Rushed"," Narrowness"," Strength"," Needle"," Hero"," None of the above"]";"{"Q0":[" Narrowness"]}"
5845;55b508f4fdf99b1c26c21c69;67;html-keyboard-response;3406;32;NULL;"Thank you for completing the main part of the experiment. We have one final question for you before you are finished. <br> Press the spacebar to continue.";NULL;NULL
5846;55b508f4fdf99b1c26c21c69;68;survey-multi-choice;2522;NULL;NULL;NULL;NULL;"{"Q0":"No"}"
5847;5ac1860b0527ba0001c1f30f;0;html-keyboard-response;2683;32;NULL;"This experiment is being conducted at Vassar College.  It consists of several tasks, each of which involves viewing various items and making simple judgments about them. The study takes approximately 15 minutes to complete. Participation poses minimal ris";NULL;NULL
5848;5ac1860b0527ba0001c1f30f;1;html-keyboard-response;5389;32;NULL;"Because this experiment features auditory stimuli, it is important to test that your speakers or headphones are working at a comfortable volume before you begin. When you are ready to start the experiment, click the spacebar to continue. In the following ";NULL;NULL
5849;5ac1860b0527ba0001c1f30f;2;audio-keyboard-response;3627;75;NULL;MusicStimuli/K.mp3;NULL;NULL
5850;5ac1860b0527ba0001c1f30f;3;html-keyboard-response;10290;32;NULL;"In this experiment you will hear brief music clips and be asked to make judgments about them. A short music clip will play, and then you will then be presented with a list of 15 words. Check off the words you thought of when you heard the music. Please ke";NULL;NULL
5851;5ac1860b0527ba0001c1f30f;4;html-keyboard-response;4771;32;NULL;"Only click "None of the Above" if you believe none of the given words matched what you were thinking of when you listened to the music. In other words, if you click "None of the Above" there should be no other words checked off.<br><br> Press the spacebar";NULL;NULL
5852;5ac1860b0527ba0001c1f30f;5;html-keyboard-response;1370;32;NULL;"Now we will begin the experiment.<br><br> Press the spacebar continue.";NULL;NULL
5853;5ac1860b0527ba0001c1f30f;6;audio-keyboard-response;NULL;NULL;NULL;Buzzsaw;NULL;NULL
5854;5ac1860b0527ba0001c1f30f;7;survey-multi-select;17047;NULL;Icon1;Buzzsaw;"[" Celebration"," Hero"," Mockery"," Peaceful"," Wideness"," Circle"," Devotion"," Sigh"," Red"," Strength"," Bird"," Ocean"," Fight"," Departure"," Staircase"," None of the above"]";"{"Q0":[" Celebration"," Mockery"]}"
5855;5ac1860b0527ba0001c1f30f;8;audio-keyboard-response;NULL;NULL;NULL;Strength;NULL;NULL
5856;5ac1860b0527ba0001c1f30f;9;survey-multi-select;16798;NULL;Ind;Strength;"[" Mockery"," Quarrel"," Angel"," Blossom"," Jungle"," Wideness"," Red"," Rushed"," Fight"," River"," Cradle"," Ocean"," Bird"," Blue"," Basement"," None of the above"]";"{"Q0":[" Jungle"," Fight"]}"
5857;5ac1860b0527ba0001c1f30f;10;audio-keyboard-response;NULL;NULL;NULL;Sigh;NULL;NULL
5858;5ac1860b0527ba0001c1f30f;11;survey-multi-select;11087;NULL;Icon1;Sigh;"[" Staircase"," Arrival"," Devotion"," Toxin"," Fight"," Departure"," Rushed"," Cradle"," Narrowness"," Celebration"," Jungle"," Quarrel"," Peaceful"," Sigh"," Strength"," None of the above"]";"{"Q0":[" Peaceful"," Strength"]}"
5859;5ac1860b0527ba0001c1f30f;12;audio-keyboard-response;NULL;NULL;NULL;Hero;NULL;NULL
5860;5ac1860b0527ba0001c1f30f;13;survey-multi-select;10023;NULL;Ind;Hero;"[" Basement"," Fight"," Mischeif"," Devotion"," Cradle"," Blossom"," Staircase"," Quarrel"," Angel"," Blue"," Bird"," Circle"," Rushed"," Wideness"," Jungle"," None of the above"]";"{"Q0":[" Fight"," Mischeif"," Rushed"]}"
5861;5ac1860b0527ba0001c1f30f;14;audio-keyboard-response;NULL;NULL;NULL;Red;NULL;NULL
5862;5ac1860b0527ba0001c1f30f;15;survey-multi-select;14925;NULL;Ind;Red;"[" Arrival"," Toxin"," Quarrel"," Departure"," Jungle"," Mischeif"," Blossom"," Red"," River"," Mockery"," Cradle"," Wideness"," Ocean"," Hero"," Blue"," None of the above"]";"{"Q0":[" Quarrel"," Mischeif"," Wideness"]}"
5863;5ac1860b0527ba0001c1f30f;16;audio-keyboard-response;NULL;NULL;NULL;Fight;NULL;NULL
5864;5ac1860b0527ba0001c1f30f;17;survey-multi-select;14774;NULL;Icon1;Fight;"[" Bird"," Jungle"," Narrowness"," Celebration"," Ocean"," Sigh"," River"," Needle"," Quarrel"," Mockery"," Toxin"," Circle"," Mischeif"," Strength"," Basement"," None of the above"]";"{"Q0":[" Jungle"," Quarrel"," Mischeif"]}"
5865;5ac1860b0527ba0001c1f30f;18;audio-keyboard-response;NULL;NULL;NULL;Celebration;NULL;NULL
5866;5ac1860b0527ba0001c1f30f;19;survey-multi-select;12129;NULL;Icon1;Celebration;"[" Basement"," Ocean"," Fight"," Circle"," Peaceful"," Arrival"," Needle"," Mockery"," Cradle"," Angel"," Rushed"," Mischeif"," Staircase"," Sigh"," Blue"," None of the above"]";"{"Q0":[" None of the above"]}"
5867;5ac1860b0527ba0001c1f30f;20;audio-keyboard-response;NULL;NULL;NULL;Ocean;NULL;NULL
5868;5ac1860b0527ba0001c1f30f;21;survey-multi-select;9055;NULL;Icon1;Ocean;"[" Hero"," River"," Narrowness"," Basement"," Ocean"," Peaceful"," Departure"," Staircase"," Circle"," Rushed"," Mischeif"," Mockery"," Sigh"," Bird"," Angel"," None of the above"]";"{"Q0":[" River"," Peaceful"," Angel"]}"
5869;5ac1860b0527ba0001c1f30f;22;audio-keyboard-response;NULL;NULL;NULL;Cradle;NULL;NULL
5870;5ac1860b0527ba0001c1f30f;23;survey-multi-select;12055;NULL;Ind;Cradle;"[" Blue"," Angel"," River"," Sigh"," Rushed"," Basement"," Toxin"," Ocean"," Quarrel"," Wideness"," Fight"," Peaceful"," Needle"," Bird"," Red"," None of the above"]";"{"Q0":[" Angel"," Sigh"," Peaceful"," Bird"]}"
5871;5ac1860b0527ba0001c1f30f;24;audio-keyboard-response;NULL;NULL;NULL;Staircase;NULL;NULL
5872;5ac1860b0527ba0001c1f30f;25;survey-multi-select;15508;NULL;Icon2;Staircase;"[" Narrowness"," Mockery"," Mischeif"," Angel"," Blossom"," Red"," Strength"," Basement"," Toxin"," Needle"," Celebration"," Devotion"," Cradle"," Sigh"," Rushed"," None of the above"]";"{"Q0":[" Mischeif"," Basement"]}"
5873;5ac1860b0527ba0001c1f30f;26;audio-keyboard-response;NULL;NULL;NULL;Quarrel;NULL;NULL
5874;5ac1860b0527ba0001c1f30f;27;survey-multi-select;9339;NULL;Icon1;Quarrel;"[" Fight"," Wideness"," Basement"," Red"," Jungle"," Rushed"," Cradle"," Toxin"," River"," Hero"," Blue"," Narrowness"," Peaceful"," Staircase"," Blossom"," None of the above"]";"{"Q0":[" Fight"," Rushed"," Staircase"]}"
5875;5ac1860b0527ba0001c1f30f;28;audio-keyboard-response;NULL;NULL;NULL;Mischief;NULL;NULL
5876;5ac1860b0527ba0001c1f30f;29;survey-multi-select;13716;NULL;Ind;Mischief;"[" Blossom"," Bird"," Wideness"," Cradle"," Circle"," Sigh"," Departure"," Mockery"," Ocean"," Fight"," Needle"," Peaceful"," Celebration"," Blue"," Rushed"," None of the above"]";"{"Q0":[" Departure"," Ocean"," Celebration"]}"
5877;5ac1860b0527ba0001c1f30f;30;audio-keyboard-response;NULL;NULL;NULL;Blossom;NULL;NULL
5878;5ac1860b0527ba0001c1f30f;31;survey-multi-select;9432;NULL;Icon2;Blossom;"[" Departure"," Blue"," Blossom"," Celebration"," Basement"," Toxin"," Sigh"," Strength"," Wideness"," Fight"," Cradle"," Narrowness"," Jungle"," Hero"," Staircase"," None of the above"]";"{"Q0":[" Blossom"," Wideness"]}"
5879;5ac1860b0527ba0001c1f30f;32;audio-keyboard-response;NULL;NULL;NULL;Circle;NULL;NULL
5880;5ac1860b0527ba0001c1f30f;33;survey-multi-select;8976;NULL;Icon2;Circle;"[" Rushed"," Fight"," Toxin"," Sigh"," Ocean"," Celebration"," Hero"," Bird"," Departure"," Narrowness"," Devotion"," Quarrel"," Cradle"," Blossom"," Red"," None of the above"]";"{"Q0":[" Celebration"," Devotion"]}"
5881;5ac1860b0527ba0001c1f30f;34;audio-keyboard-response;NULL;NULL;NULL;"Musical Clock";NULL;NULL
5882;5ac1860b0527ba0001c1f30f;35;survey-multi-select;11110;NULL;Icon1;"Musical Clock";"[" Mischeif"," Cradle"," Blue"," Blossom"," Toxin"," Circle"," Departure"," Basement"," Devotion"," Angel"," Arrival"," Mockery"," Ocean"," Wideness"," Hero"," None of the above"]";"{"Q0":[" Blossom"," Angel"]}"
5883;5ac1860b0527ba0001c1f30f;36;audio-keyboard-response;NULL;NULL;NULL;Devotion;NULL;NULL
5884;5ac1860b0527ba0001c1f30f;37;survey-multi-select;6744;NULL;Ind;Devotion;"[" Needle"," Hero"," Sigh"," Departure"," Peaceful"," Bird"," Strength"," Ocean"," Mockery"," Staircase"," Blossom"," Mischeif"," Toxin"," Circle"," Jungle"," None of the above"]";"{"Q0":[" Hero"," Departure"," Strength"]}"
5885;5ac1860b0527ba0001c1f30f;38;audio-keyboard-response;NULL;NULL;NULL;River;NULL;NULL
5886;5ac1860b0527ba0001c1f30f;39;survey-multi-select;10758;NULL;Icon2;River;"[" Hero"," Blue"," Bird"," Red"," Needle"," Ocean"," Celebration"," Peaceful"," Blossom"," Sigh"," Basement"," Toxin"," Circle"," Staircase"," Wideness"," None of the above"]";"{"Q0":[" Circle"]}"
5887;5ac1860b0527ba0001c1f30f;40;audio-keyboard-response;NULL;NULL;NULL;Arrival;NULL;NULL
5888;5ac1860b0527ba0001c1f30f;41;survey-multi-select;7780;NULL;Icon1;Arrival;"[" Devotion"," Mockery"," Needle"," Blue"," Blossom"," Quarrel"," Celebration"," Jungle"," Circle"," Staircase"," Fight"," Toxin"," Bird"," Departure"," Sigh"," None of the above"]";"{"Q0":[" Celebration"]}"
5889;5ac1860b0527ba0001c1f30f;42;audio-keyboard-response;NULL;NULL;NULL;Jungle;NULL;NULL
5890;5ac1860b0527ba0001c1f30f;43;survey-multi-select;12995;NULL;Icon1;Jungle;"[" Bird"," Peaceful"," Red"," Cradle"," Ocean"," Angel"," Blossom"," Wideness"," Toxin"," Blue"," Arrival"," Departure"," Hero"," Quarrel"," Rushed"," None of the above"]";"{"Q0":[" Wideness"]}"
5891;5ac1860b0527ba0001c1f30f;44;audio-keyboard-response;NULL;NULL;NULL;Peaceful;NULL;NULL
5892;5ac1860b0527ba0001c1f30f;45;survey-multi-select;10621;NULL;Ind;Peaceful;"[" Sigh"," Basement"," Bird"," Wideness"," Mischeif"," Devotion"," Angel"," Narrowness"," Blue"," Hero"," Ocean"," Strength"," Red"," Toxin"," Rushed"," None of the above"]";"{"Q0":[" Wideness"," Rushed"]}"
5893;5ac1860b0527ba0001c1f30f;46;audio-keyboard-response;NULL;NULL;NULL;Needle;NULL;NULL
5894;5ac1860b0527ba0001c1f30f;47;survey-multi-select;8878;NULL;Icon2;Needle;"[" Bird"," Rushed"," Jungle"," Mockery"," Departure"," Fight"," Angel"," Cradle"," Red"," Blossom"," Strength"," Quarrel"," Staircase"," Mischeif"," Basement"," None of the above"]";"{"Q0":[" Rushed"," Fight"," Quarrel"," Mischeif"]}"
5895;5ac1860b0527ba0001c1f30f;48;audio-keyboard-response;NULL;NULL;NULL;Mockery;NULL;NULL
5896;5ac1860b0527ba0001c1f30f;49;survey-multi-select;3376;NULL;Icon1;Mockery;"[" Staircase"," Circle"," Jungle"," Cradle"," Sigh"," Rushed"," Blossom"," Quarrel"," Fight"," River"," Celebration"," Mockery"," Devotion"," Peaceful"," Ocean"," None of the above"]";"{"Q0":[" Mockery"]}"
5897;5ac1860b0527ba0001c1f30f;50;audio-keyboard-response;NULL;NULL;NULL;Wideness;NULL;NULL
5898;5ac1860b0527ba0001c1f30f;51;survey-multi-select;7056;NULL;Icon2;Wideness;"[" Ocean"," Toxin"," Staircase"," Jungle"," Cradle"," Wideness"," Devotion"," Rushed"," Departure"," Narrowness"," Mischeif"," River"," Hero"," Blossom"," Peaceful"," None of the above"]";"{"Q0":[" Wideness"," Peaceful"]}"
5899;5ac1860b0527ba0001c1f30f;52;audio-keyboard-response;NULL;NULL;NULL;Rushed;NULL;NULL
5900;5ac1860b0527ba0001c1f30f;53;survey-multi-select;12022;NULL;Icon2;Rushed;"[" Needle"," Red"," Basement"," Toxin"," Mischeif"," Rushed"," Quarrel"," Jungle"," Celebration"," Blossom"," Blue"," Staircase"," Circle"," Peaceful"," Strength"," None of the above"]";"{"Q0":[" Mischeif"," Rushed"]}"
5901;5ac1860b0527ba0001c1f30f;54;audio-keyboard-response;NULL;NULL;NULL;Basement;NULL;NULL
5902;5ac1860b0527ba0001c1f30f;55;survey-multi-select;4196;NULL;Icon2;Basement;"[" Devotion"," Arrival"," Toxin"," Peaceful"," Sigh"," Mischeif"," Jungle"," Bird"," Strength"," Ocean"," Celebration"," Blue"," Hero"," Departure"," Angel"," None of the above"]";"{"Q0":[" Mischeif"]}"
5903;5ac1860b0527ba0001c1f30f;56;audio-keyboard-response;NULL;NULL;NULL;Blue;NULL;NULL
5904;5ac1860b0527ba0001c1f30f;57;survey-multi-select;8746;NULL;Ind;Blue;"[" Red"," Blossom"," Sigh"," Narrowness"," Angel"," Cradle"," Staircase"," Hero"," Strength"," Blue"," Jungle"," Celebration"," Bird"," Departure"," Circle"," None of the above"]";"{"Q0":[" None of the above"]}"
5905;5ac1860b0527ba0001c1f30f;58;audio-keyboard-response;NULL;NULL;NULL;Departure;NULL;NULL
5906;5ac1860b0527ba0001c1f30f;59;survey-multi-select;10625;NULL;Ind;Departure;"[" Staircase"," Cradle"," Circle"," Mischeif"," Peaceful"," Devotion"," Angel"," Strength"," Bird"," Basement"," Celebration"," Red"," Arrival"," Sigh"," Fight"," None of the above"]";"{"Q0":[" Peaceful"," Devotion"]}"
5907;5ac1860b0527ba0001c1f30f;60;audio-keyboard-response;NULL;NULL;NULL;Toxin;NULL;NULL
5908;5ac1860b0527ba0001c1f30f;61;survey-multi-select;8935;NULL;Ind;Toxin;"[" Peaceful"," Celebration"," River"," Wideness"," Rushed"," Departure"," Needle"," Basement"," Circle"," Toxin"," Staircase"," Cradle"," Hero"," Blossom"," Quarrel"," None of the above"]";"{"Q0":[" Basement"," Staircase"]}"
5909;5ac1860b0527ba0001c1f30f;62;audio-keyboard-response;NULL;NULL;NULL;Narrowness;NULL;NULL
5910;5ac1860b0527ba0001c1f30f;63;survey-multi-select;5713;NULL;Icon2;Narrowness;"[" Jungle"," Toxin"," Basement"," Circle"," Arrival"," Fight"," Angel"," Strength"," Devotion"," Blossom"," Mischeif"," Staircase"," Celebration"," Departure"," Cradle"," None of the above"]";"{"Q0":[" Mischeif"]}"
5911;5ac1860b0527ba0001c1f30f;64;audio-keyboard-response;NULL;NULL;NULL;Bird;NULL;NULL
5912;5ac1860b0527ba0001c1f30f;65;survey-multi-select;7935;NULL;Icon2;Bird;"[" Ocean"," Basement"," Mockery"," Departure"," Blue"," Staircase"," Toxin"," Narrowness"," River"," Jungle"," Red"," Wideness"," Mischeif"," Bird"," Rushed"," None of the above"]";"{"Q0":[" None of the above"]}"
5913;5ac1860b0527ba0001c1f30f;66;html-keyboard-response;3404;32;NULL;"Thank you for completing the main part of the experiment. We have one final question for you before you are finished. <br> Press the spacebar to continue.";NULL;NULL
5914;5ac1860b0527ba0001c1f30f;67;survey-multi-choice;2691;NULL;NULL;NULL;NULL;"{"Q0":"No"}"
5915;55c0c42cfdf99b2ddb00de03;0;html-keyboard-response;10195;32;NULL;"This experiment is being conducted at Vassar College.  It consists of several tasks, each of which involves viewing various items and making simple judgments about them. The study takes approximately 15 minutes to complete. Participation poses minimal ris";NULL;NULL
5916;55c0c42cfdf99b2ddb00de03;1;html-keyboard-response;5880;32;NULL;"Because this experiment features auditory stimuli, it is important to test that your speakers or headphones are working at a comfortable volume before you begin. When you are ready to start the experiment, click the spacebar to continue. In the following ";NULL;NULL
5917;55c0c42cfdf99b2ddb00de03;2;audio-keyboard-response;6049;75;NULL;MusicStimuli/K.mp3;NULL;NULL
5918;55c0c42cfdf99b2ddb00de03;3;html-keyboard-response;12328;32;NULL;"In this experiment you will hear brief music clips and be asked to make judgments about them. A short music clip will play, and then you will then be presented with a list of 15 words. Check off the words you thought of when you heard the music. Please ke";NULL;NULL
5919;55c0c42cfdf99b2ddb00de03;4;html-keyboard-response;4478;32;NULL;"Only click "None of the Above" if you believe none of the given words matched what you were thinking of when you listened to the music. In other words, if you click "None of the Above" there should be no other words checked off.<br><br> Press the spacebar";NULL;NULL
5920;55c0c42cfdf99b2ddb00de03;5;html-keyboard-response;1679;32;NULL;"Now we will begin the experiment.<br><br> Press the spacebar continue.";NULL;NULL
5921;55c0c42cfdf99b2ddb00de03;6;audio-keyboard-response;NULL;NULL;NULL;Bird;NULL;NULL
5922;55c0c42cfdf99b2ddb00de03;7;survey-multi-select;13194;NULL;Icon2;Bird;"[" Basement"," Quarrel"," Mockery"," Staircase"," Arrival"," Bird"," Blossom"," Hero"," Ocean"," Toxin"," Angel"," Peaceful"," Wideness"," Departure"," Jungle"," None of the above"]";"{"Q0":[" Arrival"," Bird"," Blossom"," Angel"," Peaceful"]}"
5923;55c0c42cfdf99b2ddb00de03;8;audio-keyboard-response;NULL;NULL;NULL;Peaceful;NULL;NULL
5924;55c0c42cfdf99b2ddb00de03;9;survey-multi-select;10541;NULL;Ind;Peaceful;"[" Wideness"," Mischeif"," Celebration"," Sigh"," Basement"," Cradle"," Blue"," Toxin"," Peaceful"," Strength"," Bird"," Devotion"," Narrowness"," Staircase"," Angel"," None of the above"]";"{"Q0":[" Strength"," Bird"," Devotion"]}"
5925;55c0c42cfdf99b2ddb00de03;10;audio-keyboard-response;NULL;NULL;NULL;River;NULL;NULL
5926;55c0c42cfdf99b2ddb00de03;11;survey-multi-select;8127;NULL;Icon2;River;"[" Mockery"," Jungle"," Staircase"," Hero"," Sigh"," Rushed"," Celebration"," Quarrel"," Blue"," Strength"," Ocean"," Mischeif"," Blossom"," Wideness"," Fight"," None of the above"]";"{"Q0":[" Rushed"," Quarrel"," Mischeif"," Fight"]}"
5927;55c0c42cfdf99b2ddb00de03;12;audio-keyboard-response;NULL;NULL;NULL;Sigh;NULL;NULL
5928;55c0c42cfdf99b2ddb00de03;13;survey-multi-select;12654;NULL;Icon1;Sigh;"[" Rushed"," Wideness"," Blue"," Departure"," Mischeif"," Sigh"," Jungle"," Mockery"," Narrowness"," Strength"," Hero"," Devotion"," Fight"," Arrival"," River"," None of the above"]";"{"Q0":[" None of the above"]}"
5929;55c0c42cfdf99b2ddb00de03;14;audio-keyboard-response;NULL;NULL;NULL;Hero;NULL;NULL
5930;55c0c42cfdf99b2ddb00de03;15;survey-multi-select;14052;NULL;Ind;Hero;"[" Arrival"," Wideness"," River"," Red"," Ocean"," Basement"," Fight"," Devotion"," Blue"," Bird"," Sigh"," Angel"," Quarrel"," Hero"," Mischeif"," None of the above"]";"{"Q0":[" Hero"]}"
5931;55c0c42cfdf99b2ddb00de03;16;audio-keyboard-response;NULL;NULL;NULL;Celebration;NULL;NULL
5932;55c0c42cfdf99b2ddb00de03;17;survey-multi-select;10076;NULL;Icon1;Celebration;"[" Sigh"," Rushed"," Blossom"," Devotion"," Fight"," Bird"," Strength"," Staircase"," Cradle"," Circle"," Basement"," Narrowness"," Needle"," Departure"," River"," None of the above"]";"{"Q0":[" Strength"," Departure"]}"
5933;55c0c42cfdf99b2ddb00de03;18;audio-keyboard-response;NULL;NULL;NULL;Mischief;NULL;NULL
5934;55c0c42cfdf99b2ddb00de03;19;survey-multi-select;4565;NULL;Ind;Mischief;"[" Peaceful"," Mischeif"," Red"," Fight"," Needle"," Arrival"," Blue"," Cradle"," Celebration"," Mockery"," Staircase"," Circle"," Narrowness"," Sigh"," Quarrel"," None of the above"]";"{"Q0":[" None of the above"]}"
5935;55c0c42cfdf99b2ddb00de03;20;audio-keyboard-response;NULL;NULL;NULL;Arrival;NULL;NULL
5936;55c0c42cfdf99b2ddb00de03;21;survey-multi-select;8974;NULL;Icon1;Arrival;"[" Fight"," Staircase"," Mischeif"," Devotion"," Ocean"," Departure"," Celebration"," Cradle"," Bird"," Jungle"," Sigh"," Red"," Narrowness"," Toxin"," Circle"," None of the above"]";"{"Q0":[" None of the above"]}"
5937;55c0c42cfdf99b2ddb00de03;22;audio-keyboard-response;NULL;NULL;NULL;Toxin;NULL;NULL
5938;55c0c42cfdf99b2ddb00de03;23;survey-multi-select;7790;NULL;Ind;Toxin;"[" Basement"," Narrowness"," Departure"," Red"," Circle"," Mockery"," Jungle"," Blue"," Cradle"," Blossom"," Quarrel"," Rushed"," Bird"," Needle"," Strength"," None of the above"]";"{"Q0":[" Quarrel"]}"
5939;55c0c42cfdf99b2ddb00de03;24;audio-keyboard-response;NULL;NULL;NULL;Blue;NULL;NULL
5940;55c0c42cfdf99b2ddb00de03;25;survey-multi-select;12910;NULL;Ind;Blue;"[" Wideness"," Strength"," Peaceful"," Rushed"," Basement"," Sigh"," Toxin"," Mischeif"," Red"," Circle"," Bird"," Angel"," Arrival"," Hero"," Departure"," None of the above"]";"{"Q0":[" None of the above"]}"
5941;55c0c42cfdf99b2ddb00de03;26;audio-keyboard-response;NULL;NULL;NULL;Devotion;NULL;NULL
5942;55c0c42cfdf99b2ddb00de03;27;survey-multi-select;9048;NULL;Ind;Devotion;"[" Arrival"," Staircase"," Jungle"," Narrowness"," Needle"," Blossom"," Departure"," Peaceful"," Devotion"," Mischeif"," Cradle"," Fight"," Hero"," Angel"," Blue"," None of the above"]";"{"Q0":[" Blossom"," Devotion"," Hero"]}"
5943;55c0c42cfdf99b2ddb00de03;28;audio-keyboard-response;NULL;NULL;NULL;Fight;NULL;NULL
5944;55c0c42cfdf99b2ddb00de03;29;survey-multi-select;8409;NULL;Icon1;Fight;"[" Bird"," Mischeif"," Peaceful"," Cradle"," Arrival"," Mockery"," Toxin"," Quarrel"," Angel"," Circle"," Red"," Narrowness"," Ocean"," Staircase"," Celebration"," None of the above"]";"{"Q0":[" Mischeif"," Quarrel"]}"
5945;55c0c42cfdf99b2ddb00de03;30;audio-keyboard-response;NULL;NULL;NULL;Quarrel;NULL;NULL
5946;55c0c42cfdf99b2ddb00de03;31;survey-multi-select;6488;NULL;Icon1;Quarrel;"[" Devotion"," Celebration"," Basement"," Cradle"," Wideness"," River"," Jungle"," Arrival"," Hero"," Fight"," Mockery"," Departure"," Narrowness"," Angel"," Toxin"," None of the above"]";"{"Q0":[" None of the above"]}"
5947;55c0c42cfdf99b2ddb00de03;32;audio-keyboard-response;NULL;NULL;NULL;Basement;NULL;NULL
5948;55c0c42cfdf99b2ddb00de03;33;survey-multi-select;8237;NULL;Icon2;Basement;"[" Ocean"," Devotion"," Sigh"," Wideness"," Celebration"," Basement"," Mockery"," Arrival"," Rushed"," Jungle"," Strength"," Hero"," Needle"," Blue"," River"," None of the above"]";"{"Q0":[" Sigh"," Blue"]}"
5949;55c0c42cfdf99b2ddb00de03;34;audio-keyboard-response;NULL;NULL;NULL;Wideness;NULL;NULL
5950;55c0c42cfdf99b2ddb00de03;35;survey-multi-select;4891;NULL;Icon2;Wideness;"[" Sigh"," Cradle"," Red"," Bird"," Devotion"," Ocean"," Arrival"," Blossom"," Needle"," Narrowness"," Jungle"," River"," Fight"," Angel"," Staircase"," None of the above"]";"{"Q0":[" Arrival"," Blossom"]}"
5951;55c0c42cfdf99b2ddb00de03;36;audio-keyboard-response;NULL;NULL;NULL;Departure;NULL;NULL
5952;55c0c42cfdf99b2ddb00de03;37;survey-multi-select;3614;NULL;Ind;Departure;"[" Quarrel"," Peaceful"," Rushed"," Fight"," Departure"," Narrowness"," Cradle"," Staircase"," Devotion"," Strength"," Blue"," Hero"," Mischeif"," Jungle"," Angel"," None of the above"]";"{"Q0":[" Peaceful"]}"
5953;55c0c42cfdf99b2ddb00de03;38;audio-keyboard-response;NULL;NULL;NULL;Rushed;NULL;NULL
5954;55c0c42cfdf99b2ddb00de03;39;survey-multi-select;8484;NULL;Icon2;Rushed;"[" Blossom"," Bird"," Ocean"," Jungle"," Red"," Narrowness"," Toxin"," Mockery"," Basement"," Peaceful"," River"," Hero"," Devotion"," Strength"," Angel"," None of the above"]";"{"Q0":[" None of the above"]}"
5955;55c0c42cfdf99b2ddb00de03;40;audio-keyboard-response;NULL;NULL;NULL;Ocean;NULL;NULL
5956;55c0c42cfdf99b2ddb00de03;41;survey-multi-select;13184;NULL;Icon1;Ocean;"[" Quarrel"," Toxin"," Staircase"," Red"," Strength"," Celebration"," River"," Mockery"," Peaceful"," Angel"," Circle"," Rushed"," Blossom"," Devotion"," Wideness"," None of the above"]";"{"Q0":[" None of the above"]}"
5957;55c0c42cfdf99b2ddb00de03;42;audio-keyboard-response;NULL;NULL;NULL;Red;NULL;NULL
5958;55c0c42cfdf99b2ddb00de03;43;survey-multi-select;13649;NULL;Ind;Red;"[" Narrowness"," Angel"," Celebration"," Jungle"," Departure"," Blue"," Fight"," Quarrel"," Toxin"," Hero"," Basement"," Cradle"," Blossom"," Arrival"," Sigh"," None of the above"]";"{"Q0":[" Fight"," Quarrel"," Arrival"]}"
5959;55c0c42cfdf99b2ddb00de03;44;audio-keyboard-response;NULL;NULL;NULL;Staircase;NULL;NULL
5960;55c0c42cfdf99b2ddb00de03;45;survey-multi-select;6077;NULL;Icon2;Staircase;"[" Mischeif"," Angel"," Toxin"," Wideness"," Arrival"," Needle"," Sigh"," Strength"," Departure"," Narrowness"," Blue"," Peaceful"," Red"," Jungle"," Devotion"," None of the above"]";"{"Q0":[" Mischeif"]}"
5961;55c0c42cfdf99b2ddb00de03;46;audio-keyboard-response;NULL;NULL;NULL;Circle;NULL;NULL
5962;55c0c42cfdf99b2ddb00de03;47;survey-multi-select;2486;NULL;Icon2;Circle;"[" Jungle"," Needle"," Toxin"," Narrowness"," Cradle"," Devotion"," Departure"," Ocean"," Quarrel"," Bird"," Mockery"," Hero"," Red"," Staircase"," Peaceful"," None of the above"]";"{"Q0":[" Cradle"]}"
5963;55c0c42cfdf99b2ddb00de03;48;audio-keyboard-response;NULL;NULL;NULL;Jungle;NULL;NULL
5964;55c0c42cfdf99b2ddb00de03;49;survey-multi-select;9330;NULL;Icon1;Jungle;"[" Wideness"," Strength"," Jungle"," Departure"," Mockery"," Cradle"," Needle"," Devotion"," Toxin"," Sigh"," Angel"," Narrowness"," Arrival"," Celebration"," Blossom"," None of the above"]";"{"Q0":[" None of the above"]}"
5965;55c0c42cfdf99b2ddb00de03;50;audio-keyboard-response;NULL;NULL;NULL;Strength;NULL;NULL
5966;55c0c42cfdf99b2ddb00de03;51;survey-multi-select;6874;NULL;Ind;Strength;"[" Mockery"," Fight"," Needle"," Strength"," Ocean"," Cradle"," Angel"," Toxin"," Rushed"," Staircase"," Bird"," Hero"," Celebration"," Blossom"," Mischeif"," None of the above"]";"{"Q0":[" Hero"," Celebration"]}"
5967;55c0c42cfdf99b2ddb00de03;52;audio-keyboard-response;NULL;NULL;NULL;Blossom;NULL;NULL
5968;55c0c42cfdf99b2ddb00de03;53;survey-multi-select;14879;NULL;Icon2;Blossom;"[" Wideness"," Devotion"," Sigh"," Rushed"," Circle"," Strength"," Departure"," Mockery"," River"," Arrival"," Mischeif"," Ocean"," Blue"," Basement"," Cradle"," None of the above"]";"{"Q0":[" None of the above"]}"
5969;55c0c42cfdf99b2ddb00de03;54;audio-keyboard-response;NULL;NULL;NULL;Needle;NULL;NULL
5970;55c0c42cfdf99b2ddb00de03;55;survey-multi-select;8536;NULL;Icon2;Needle;"[" River"," Blue"," Mockery"," Jungle"," Peaceful"," Cradle"," Rushed"," Hero"," Mischeif"," Arrival"," Bird"," Ocean"," Devotion"," Blossom"," Staircase"," None of the above"]";"{"Q0":[" Mischeif"]}"
5971;55c0c42cfdf99b2ddb00de03;56;audio-keyboard-response;NULL;NULL;NULL;Mockery;NULL;NULL
5972;55c0c42cfdf99b2ddb00de03;57;survey-multi-select;17277;NULL;Icon1;Mockery;"[" Hero"," Ocean"," Bird"," Red"," Sigh"," Needle"," Celebration"," Quarrel"," Basement"," Arrival"," Wideness"," Staircase"," River"," Rushed"," Peaceful"," None of the above"]";"{"Q0":[" None of the above"]}"
5973;55c0c42cfdf99b2ddb00de03;58;audio-keyboard-response;NULL;NULL;NULL;Cradle;NULL;NULL
5974;55c0c42cfdf99b2ddb00de03;59;survey-multi-select;11138;NULL;Ind;Cradle;"[" Blue"," Jungle"," Circle"," Angel"," Fight"," Wideness"," Bird"," Quarrel"," Arrival"," Mischeif"," Sigh"," Needle"," Ocean"," Devotion"," Cradle"," None of the above"]";"{"Q0":[" None of the above"]}"
5975;55c0c42cfdf99b2ddb00de03;60;audio-keyboard-response;NULL;NULL;NULL;"Musical Clock";NULL;NULL
5976;55c0c42cfdf99b2ddb00de03;61;survey-multi-select;8670;NULL;Icon1;"Musical Clock";"[" Hero"," Angel"," Strength"," Staircase"," Devotion"," Ocean"," Arrival"," Celebration"," Jungle"," Red"," Peaceful"," River"," Toxin"," Basement"," Cradle"," None of the above"]";"{"Q0":[" Devotion"," Arrival"]}"
5977;55c0c42cfdf99b2ddb00de03;62;audio-keyboard-response;NULL;NULL;NULL;Narrowness;NULL;NULL
5978;55c0c42cfdf99b2ddb00de03;63;survey-multi-select;7521;NULL;Icon2;Narrowness;"[" Jungle"," Fight"," Circle"," Red"," Narrowness"," Ocean"," Angel"," Blue"," Devotion"," Toxin"," Celebration"," Bird"," Hero"," Arrival"," Cradle"," None of the above"]";"{"Q0":[" None of the above"]}"
5979;55c0c42cfdf99b2ddb00de03;64;audio-keyboard-response;NULL;NULL;NULL;Buzzsaw;NULL;NULL
5980;55c0c42cfdf99b2ddb00de03;65;survey-multi-select;4956;NULL;Icon1;Buzzsaw;"[" Quarrel"," Basement"," Mischeif"," Fight"," Needle"," Red"," Blossom"," Angel"," Hero"," Celebration"," Circle"," Ocean"," Arrival"," River"," Narrowness"," None of the above"]";"{"Q0":[" Quarrel"," Mischeif"]}"
5981;55c0c42cfdf99b2ddb00de03;66;html-keyboard-response;3245;32;NULL;"Thank you for completing the main part of the experiment. We have one final question for you before you are finished. <br> Press the spacebar to continue.";NULL;NULL
5982;55c0c42cfdf99b2ddb00de03;67;survey-multi-choice;4777;NULL;NULL;NULL;NULL;"{"Q0":"No"}"
5983;5abec2ae5cd105000161fef0;0;html-keyboard-response;17448;32;NULL;"This experiment is being conducted at Vassar College.  It consists of several tasks, each of which involves viewing various items and making simple judgments about them. The study takes approximately 15 minutes to complete. Participation poses minimal ris";NULL;NULL
5984;5abec2ae5cd105000161fef0;1;html-keyboard-response;6833;32;NULL;"Because this experiment features auditory stimuli, it is important to test that your speakers or headphones are working at a comfortable volume before you begin. When you are ready to start the experiment, click the spacebar to continue. In the following ";NULL;NULL
5985;5abec2ae5cd105000161fef0;2;audio-keyboard-response;NULL;NULL;NULL;MusicStimuli/K.mp3;NULL;NULL
5986;5abec2ae5cd105000161fef0;3;audio-keyboard-response;6141;75;NULL;MusicStimuli/K.mp3;NULL;NULL
5987;5abec2ae5cd105000161fef0;4;html-keyboard-response;10657;32;NULL;"In this experiment you will hear brief music clips and be asked to make judgments about them. A short music clip will play, and then you will then be presented with a list of 15 words. Check off the words you thought of when you heard the music. Please ke";NULL;NULL
5988;5abec2ae5cd105000161fef0;5;html-keyboard-response;4437;32;NULL;"Only click "None of the Above" if you believe none of the given words matched what you were thinking of when you listened to the music. In other words, if you click "None of the Above" there should be no other words checked off.<br><br> Press the spacebar";NULL;NULL
5989;5abec2ae5cd105000161fef0;6;html-keyboard-response;1908;32;NULL;"Now we will begin the experiment.<br><br> Press the spacebar continue.";NULL;NULL
5990;5abec2ae5cd105000161fef0;7;audio-keyboard-response;NULL;NULL;NULL;Arrival;NULL;NULL
5991;5abec2ae5cd105000161fef0;8;survey-multi-select;11569;NULL;Icon1;Arrival;"[" Ocean"," Needle"," Strength"," Mockery"," River"," Blue"," Red"," Peaceful"," Devotion"," Quarrel"," Rushed"," Fight"," Hero"," Narrowness"," Arrival"," None of the above"]";"{"Q0":[" Strength"," Hero"]}"
5992;5abec2ae5cd105000161fef0;9;audio-keyboard-response;NULL;NULL;NULL;Needle;NULL;NULL
5993;5abec2ae5cd105000161fef0;10;survey-multi-select;21403;NULL;Icon2;Needle;"[" Blue"," Celebration"," Red"," Sigh"," Mockery"," Needle"," River"," Blossom"," Departure"," Narrowness"," Circle"," Fight"," Mischeif"," Basement"," Peaceful"," None of the above"]";"{"Q0":[" Mischeif"]}"
5994;5abec2ae5cd105000161fef0;11;audio-keyboard-response;NULL;NULL;NULL;Red;NULL;NULL
5995;5abec2ae5cd105000161fef0;12;survey-multi-select;12601;NULL;Ind;Red;"[" Angel"," Jungle"," Wideness"," Peaceful"," Bird"," Devotion"," Needle"," Celebration"," Cradle"," Toxin"," Hero"," Mockery"," Staircase"," Mischeif"," Strength"," None of the above"]";"{"Q0":[" Strength"]}"
5996;5abec2ae5cd105000161fef0;13;audio-keyboard-response;NULL;NULL;NULL;Fight;NULL;NULL
5997;5abec2ae5cd105000161fef0;14;survey-multi-select;10315;NULL;Icon1;Fight;"[" Ocean"," Blue"," Wideness"," Peaceful"," Mischeif"," Red"," Sigh"," Mockery"," Basement"," Devotion"," Cradle"," Departure"," Bird"," Rushed"," Arrival"," None of the above"]";"{"Q0":[" None of the above"]}"
5998;5abec2ae5cd105000161fef0;15;audio-keyboard-response;NULL;NULL;NULL;Toxin;NULL;NULL
5999;5abec2ae5cd105000161fef0;16;survey-multi-select;9987;NULL;Ind;Toxin;"[" River"," Rushed"," Celebration"," Devotion"," Jungle"," Wideness"," Toxin"," Blossom"," Angel"," Blue"," Red"," Basement"," Arrival"," Cradle"," Fight"," None of the above"]";"{"Q0":[" None of the above"]}"
6000;5abec2ae5cd105000161fef0;17;audio-keyboard-response;NULL;NULL;NULL;Ocean;NULL;NULL
6001;5abec2ae5cd105000161fef0;18;survey-multi-select;31463;NULL;Icon1;Ocean;"[" River"," Wideness"," Jungle"," Quarrel"," Bird"," Celebration"," Departure"," Staircase"," Devotion"," Arrival"," Ocean"," Mischeif"," Needle"," Angel"," Blue"," None of the above"]";"{"Q0":[" Devotion"]}"
6002;5abec2ae5cd105000161fef0;19;audio-keyboard-response;NULL;NULL;NULL;Staircase;NULL;NULL
6003;5abec2ae5cd105000161fef0;20;survey-multi-select;10499;NULL;Icon2;Staircase;"[" River"," Jungle"," Wideness"," Toxin"," Sigh"," Celebration"," Rushed"," Ocean"," Narrowness"," Strength"," Staircase"," Needle"," Angel"," Bird"," Hero"," None of the above"]";"{"Q0":[" Staircase"]}"
6004;5abec2ae5cd105000161fef0;21;audio-keyboard-response;NULL;NULL;NULL;Narrowness;NULL;NULL
6005;5abec2ae5cd105000161fef0;22;survey-multi-select;11335;NULL;Icon2;Narrowness;"[" Jungle"," River"," Fight"," Departure"," Celebration"," Devotion"," Hero"," Basement"," Circle"," Quarrel"," Cradle"," Mischeif"," Sigh"," Rushed"," Angel"," None of the above"]";"{"Q0":[" Quarrel"]}"
6006;5abec2ae5cd105000161fef0;23;audio-keyboard-response;NULL;NULL;NULL;Strength;NULL;NULL
6007;5abec2ae5cd105000161fef0;24;survey-multi-select;10473;NULL;Ind;Strength;"[" Rushed"," Narrowness"," Sigh"," River"," Basement"," Staircase"," Ocean"," Bird"," Quarrel"," Departure"," Mockery"," Needle"," Fight"," Peaceful"," Angel"," None of the above"]";"{"Q0":[" Fight"]}"
6008;5abec2ae5cd105000161fef0;25;audio-keyboard-response;NULL;NULL;NULL;Wideness;NULL;NULL
6009;5abec2ae5cd105000161fef0;26;survey-multi-select;10682;NULL;Icon2;Wideness;"[" Strength"," Departure"," Sigh"," Staircase"," Basement"," Blue"," Mockery"," Celebration"," Ocean"," Jungle"," Quarrel"," Peaceful"," Hero"," Toxin"," Cradle"," None of the above"]";"{"Q0":[" Peaceful"]}"
